time,seconds_elapsed,z,y,x,seconds_elapsed,z,y,x,seconds_elapsed,z,y,x,seconds_elapsed,z,y,x,seconds_elapsed,yaw,qx,qz,roll,qw,qy,pitch
2025-05-02 13:51:28.100,5.032423319868606,0.6728516172674145,-0.295970199328996,-2.155702324838205,5.032423319868606,-0.703411126420737,-0.017851405726237477,-0.07710968848941473,5.032423319868606,41.41769433188274,-30.32570329145953,-18.2155144378022,5.032423319868606,9.748930678649662,1.0555574701086716,-0.14161720138967654,5.032423319868606,1.0123492149764854,-0.483742230616703,-0.05065828057406958,-3.127067581506433,0.019771370916066774,0.8734439152046934,-0.10784626192909319
2025-05-02 13:51:28.150,5.081331227805396,0.4059529604358721,-0.15538811236024852,-1.2542531277124929,5.081331227805396,-0.3565885815076486,-0.029034572998908312,-0.04451922894146146,5.081331227805396,41.44960081513947,-30.80454356800427,-17.871291501772163,5.081331227805396,9.747864361240598,1.0251584390058257,-0.25218511306022495,5.081331227805396,1.033630521780932,-0.4926880253249282,-0.052059867790289045,-3.1157372196597515,0.01466310626693615,0.8682078434764491,-0.1047305273662575
2025-05-02 13:51:28.200,5.130413688151041,0.19080575129249266,-0.04204927296635974,-0.5373833012245353,5.130413688151041,-0.0902331664449687,-0.033890294014955996,-0.019049445859912063,5.130413688151041,41.475143467474105,-31.190475667317713,-17.607202911732642,5.130413688151041,9.747035727531529,1.0012401974710576,-0.3396272377000246,5.130413688151041,1.0504313084046653,-0.49975139533970514,-0.053171258487073,-3.1067765747852354,0.010624871202881844,0.8640774713941969,-0.10227902251746217
2025-05-02 13:51:28.250,5.179670700905539,0.027409989837276272,0.04404631885267046,-0.005092845374332189,5.179670700905539,0.0956551187673027,-0.03241856877438053,-0.0007003392447665485,5.179670700905539,41.49432228888666,-31.483499589399862,-17.42324866768364,5.179670700905539,9.746444777522457,0.9838027455043679,-0.4039435753090755,5.179670700905539,1.062751574847685,-0.5049323406610338,-0.05399245266442143,-3.1001856468828843,0.0076566657239038535,0.8610527989579366,-0.1004917473827072
2025-05-02 13:51:28.300,5.2291022660688915,-0.08423432392977726,0.10289866309684192,0.34261823983811635,5.2291022660688915,0.2010762741291654,-0.024619397277181907,0.01052809090397512,5.2291022660688915,41.50713727937712,-31.683615334250714,-17.31942876962516,5.2291022660688915,9.746091511213383,0.9728460831057562,-0.4451341258873775,5.2291022660688915,1.0705913211099913,-0.5082308612889141,-0.05452345032233435,-3.095964435952699,0.005758489830002178,0.8591338261676684,-0.09936870196199261
2025-05-02 13:51:28.350,5.278708383641112,-0.14412719000866817,0.13450775976615542,0.5057499544128121,5.278708383641112,0.22603029964061946,-0.01049277952336002,0.01463584458631292,5.278708383641112,41.5135884389456,-31.790822901870342,-17.295743217557224,5.278708383641112,9.745975928604324,0.9683702102752242,-0.4631988894349314,5.278708383641112,1.073950547191586,-0.5096469572233473,-0.05476425146081186,-3.0941129419946845,0.004930343521176816,0.8583205530233944,-0.09890988625531859
2025-05-02 13:51:28.400,5.329047649989997,-0.03347225823917318,-0.052418822932858135,0.0018795130707006031,5.329047649989997,0.31377737909242903,-0.08084628934296852,0.031638832989481024,5.329047649989997,41.39542276875966,-31.57418296831757,-17.687742596962,5.329047649989997,9.745837738364452,0.9886143908098978,-0.42493083930245973,5.329047649989997,1.0594781787939413,-0.5034790997607043,-0.054707525528176884,-3.098030986013478,0.006737869873524334,0.8619318216998851,-0.10098502903470734
2025-05-02 13:51:28.450,5.37896788998763,0.1927859564270109,-0.12547187840238652,-0.5328945030906999,5.37896788998763,0.17789383328830252,-0.08458287639322001,0.02041897815142032,5.37896788998763,41.35194433252305,-31.35011472902106,-17.957500367064622,5.37896788998763,9.745559614946712,1.0107195108234708,-0.3669458901076465,5.37896788998763,1.0465314096508345,-0.49799896892657536,-0.0542657670859377,-3.1039707637527783,0.009532309937663769,0.8651037703873856,-0.10325078887415874
2025-05-02 13:51:28.500,5.428888076262943,0.21173965041428236,-0.08793366600573384,-0.6459833393011002,5.428888076262943,-0.06916982049257066,-0.02667831639848255,-0.015360311435487817,5.428888076262943,41.38111871039127,-31.301398729444458,-18.020168249312583,5.428888076262943,9.746101490991341,1.0150791494886613,-0.33710676386155003,5.428888076262943,1.0436647593662334,-0.49682752430449295,-0.05371607355764293,-3.1070295323380943,0.010894506311516217,0.8657895781890698,-0.10369763235332166
2025-05-02 13:51:28.550,5.478808420632116,0.09267395278529575,0.0427477276316543,-0.40720412441085224,5.478808420632116,-0.28353769570515325,0.06118980405943396,-0.03376491555134341,5.478808420632116,41.46980289201369,-31.520651479867865,-17.84842493017241,5.478808420632116,9.746760330819862,1.0019879346211467,-0.3530838764771794,5.478808420632116,1.0529825264060868,-0.500831154960378,-0.053513732657951445,-3.1053957674681154,0.010109677006342407,0.8634777614701642,-0.10235555433652065
2025-05-02 13:51:28.600,5.528728782529333,-0.04313718434783834,0.20622345970663417,0.20328123236149942,5.528728782529333,-0.2947120267741546,0.11331146921971215,-0.035236581035245,5.528728782529333,41.55018627815879,-31.84904194722928,-17.55902898472788,5.528728782529333,9.746440476626764,0.9808384244427459,-0.4149381290551862,5.528728782529333,1.0685536281541899,-0.5074159363122835,-0.054110630733292614,-3.0990580294407963,0.0072555385325286485,0.8596205592399225,-0.10018744207200184
2025-05-02 13:51:28.650,5.57864911836212,-0.18457262761912335,0.21600533593990898,0.5002976200306317,5.57864911836212,-0.1213738782837174,0.055299116870809704,-0.018408393983171286,5.57864911836212,41.56547379927212,-32.082872567699305,-17.387976394333247,5.57864911836212,9.74593070841041,0.9642567773053636,-0.47045295502235784,5.57864911836212,1.0793748893977089,-0.511953817493783,-0.05477907247782388,-3.0933705648271097,0.0046634677687708475,0.8569263193086604,-0.09848821069396735
2025-05-02 13:51:28.700,5.6285696060287504,-0.16307543281837258,0.14629257522720823,0.5227605315132844,5.6285696060287504,0.11249123621462834,-0.0009332172919959176,0.0024069712241126164,5.6285696060287504,41.5150995427913,-32.08270669150194,-17.380253220493742,5.6285696060287504,9.745494064291215,0.9629004529509761,-0.4828104099176487,5.6285696060287504,1.07962884215733,-0.5120407485506165,-0.055032445040995866,-3.0921032681479548,0.0040917458222197375,0.856884731326634,-0.09834903930861692
2025-05-02 13:51:28.750,5.6784901083779635,-0.10236452836849083,-0.006501534892031459,0.28131097290743734,5.6784901083779635,0.2873333782472141,-0.06298719217831455,0.024544430632222444,5.6784901083779635,41.40327011855343,-31.87130094230322,-17.57455746666261,5.6784901083779635,9.745526804329646,0.9765262508965914,-0.4584083508937955,5.6784901083779635,1.069078569978208,-0.5075534982743306,-0.055001906489385535,-3.094600105680949,0.005218057197270401,0.8595578990922565,-0.09974554929357046
2025-05-02 13:51:28.800,5.728410488827593,0.08924584144904366,-0.1158048198447784,-0.3390387608325331,5.728410488827593,0.238154633491711,-0.1008364951954441,0.028743501356748694,5.728410488827593,41.362017388332795,-31.547951907711504,-17.792129011532133,5.728410488827593,9.745528771811252,0.9989551634387146,-0.4013412320382067,5.728410488827593,1.0550410962622925,-0.5016116610209652,-0.05457777065415421,-3.1004459996980955,0.007936429425751467,0.8630272657515706,-0.10204463771208151
2025-05-02 13:51:28.850,5.778330904902403,0.2323308564513428,-0.0946523693441446,-0.617321971511595,5.778330904902403,0.02469285992202128,-0.051043477692231165,-0.004530524616596441,5.778330904902403,41.409941609700624,-31.348959087380795,-17.820214793954463,5.778330904902403,9.745869526817598,1.0112507537472908,-0.3558685506178446,5.778330904902403,1.0481128976678615,-0.49871168676023614,-0.05399378172940834,-3.1051054019982245,0.01008519020933897,0.8647092704593422,-0.10330486399196846
2025-05-02 13:51:28.900,5.828251362065683,0.12438581830324026,0.005789478978029251,-0.5009009963789751,5.828251362065683,-0.22075567339006477,0.02139565616950294,-0.029893261314389342,5.828251362065683,41.48787812630901,-31.414844760139026,-17.636513549520185,5.828251362065683,9.746859182872809,1.0029056313991631,-0.35181708460692906,5.828251362065683,1.0532689324728963,-0.500961595320962,-0.053505956688323524,-3.10552483466075,0.01019108742355798,0.8634176787655238,-0.10244956641094849
2025-05-02 13:51:28.950,5.878171689817359,0.0023499003510056003,0.1695033956501142,-0.0024469757776005813,5.878171689817359,-0.32186489283152897,0.10547541193794356,-0.03682678779218101,5.878171689817359,41.57594023306619,-31.689257243407713,-17.322603857934098,5.878171689817359,9.746925636062805,0.9824402538155828,-0.39917888094301585,5.878171689817359,1.067855079153644,-0.5071580807436813,-0.05377304064218053,-3.1006740155518338,0.007974745178807007,0.8597935508531499,-0.10035156933310134
2025-05-02 13:51:29.000,5.928091860727179,-0.14799543760771416,0.24251357974314958,0.4814203994747885,5.928091860727179,-0.18935093913045012,0.09441189729285154,-0.027392602495367242,5.928091860727179,41.524519216542025,-31.958200393356723,-17.154025104940676,5.928091860727179,9.74625807445918,0.9629042034968496,-0.4663244984305737,5.928091860727179,1.0813468661622148,-0.5128152082428733,-0.05459928222804787,-3.0937938874672315,0.004864051848549307,0.8564297759326982,-0.0983494306550332
2025-05-02 13:51:29.050,5.978012134415079,-0.19700782096651517,0.2058779241900573,0.5825150255441963,5.978012134415079,0.047360462279412964,0.018842463044662507,-0.001155491831054625,5.978012134415079,41.417668994823636,-32.089002560346636,-17.188133983123038,5.978012134415079,9.745513986268739,0.9563329563987198,-0.4966567863911021,5.978012134415079,1.0851184457271126,-0.5143637862766925,-0.055096168543285744,-3.09068594690333,0.003458806739929426,0.855481974793675,-0.09767618717294523
2025-05-02 13:51:29.100,6.027932414362995,-0.12559483574974542,0.060260702216014345,0.4354396521303409,6.027932414362995,0.2723385173262979,-0.03638810750036259,0.01741505888798703,6.027932414362995,41.26064960328581,-32.00345410611531,-17.473202222988643,6.027932414362995,9.745129777986866,0.9664653048038109,-0.4857770947861349,6.027932414362995,1.0768512276915476,-0.5108257805030878,-0.05526601236533616,-3.091796861080807,0.003968552355608142,0.8575806793508013,-0.09871452525875982
2025-05-02 13:51:29.150,6.077852658571912,0.017769550740342366,-0.12952785607241737,-0.1798146358043686,6.077852658571912,0.3086986989364696,-0.10349990962711479,0.030720681989986724,6.077852658571912,41.12841779802238,-31.733067069242683,-17.836828229143947,6.077852658571912,9.745300643409127,0.9882684757969125,-0.4347409231578817,6.077852658571912,1.0612429976581146,-0.5042079010139899,-0.054946379415896654,-3.097023906574478,0.0063497208979766875,0.8614840958862338,-0.10094939929199748
2025-05-02 13:51:29.200,6.127772926113615,0.23175047526567197,-0.14151287566264925,-0.6215848224977817,6.127772926113615,0.12806016143524318,-0.07748208182119284,0.010686904129774138,6.127772926113615,41.09271533316954,-31.485848778500223,-18.01956553070144,6.127772926113615,9.74551013605439,1.0077264358646512,-0.37552375835516094,6.127772926113615,1.0497852521817097,-0.4993858924335635,-0.054332867448809455,-3.103090520484533,0.009166207853792211,0.8643031530358922,-0.10294367941859525
2025-05-02 13:51:29.250,6.1776931723712645,0.19005896206591424,-0.05977669285063591,-0.6420585747199538,6.1776931723712645,-0.1402316014744814,-0.01560113600700538,-0.023316400840070955,6.1776931723712645,41.17088006293034,-31.48809088860366,-17.926883781095253,6.1776931723712645,9.746482291878479,1.0067060174715277,-0.35265223821230257,6.1776931723712645,1.0500736366619872,-0.49956854037843246,-0.05370550091101638,-3.105437320628692,0.010160096719282356,0.8642089566127902,-0.10283921830499969
2025-05-02 13:51:29.300,6.2276134245474735,0.07175007776428234,0.113365820576874,-0.2912991280737261,6.2276134245474735,-0.3339892126116173,0.07507700212560357,-0.04016460015727238,6.2276134245474735,41.358424928749734,-31.734895022376786,-17.638877239093958,6.2276134245474735,9.747148813060393,0.9882066247970956,-0.37935057106750836,6.2276134245474735,1.0626469375289287,-0.5049467162981954,-0.05354426355304994,-3.1027064750294118,0.008853428182440715,0.8610678103483085,-0.10094298650308874
2025-05-02 13:51:29.350,6.277533658626545,-0.07994089307801588,0.25777033123944904,0.3528748415839175,6.277533658626545,-0.2940849301403088,0.11503928961592709,-0.03668917991277402,6.277533658626545,41.47175892649841,-32.066240985577004,-17.325277916256965,6.277533658626545,9.746769431103548,0.9645388669561915,-0.4456295582160076,6.277533658626545,1.0794261975168524,-0.5120313490679367,-0.054157641415589125,-3.0959162417106247,0.005773391849321218,0.8568835071296333,-0.09851702098019065
2025-05-02 13:51:29.400,6.3274539186562295,-0.22235961634708787,0.25964266072006575,0.6432234930214934,6.3274539186562295,-0.07505193398592443,0.053141809487606995,-0.012458652275720829,6.3274539186562295,41.48840593813748,-32.260104818277505,-17.212796112985366,6.3274539186562295,9.746092250095396,0.9493970770859964,-0.49844026498064015,6.3274539186562295,1.0890896370125425,-0.5160683650237725,-0.05483531476824934,-3.0905059096419363,0.0033075244956497943,0.8544627727275642,-0.0969655813539086
2025-05-02 13:51:29.450,6.3769553119081595,-0.17840656697329568,0.15726786469319906,0.6157818978301689,6.3769553119081595,0.1944381507908136,-0.002271410303585439,0.014349264663259935,6.3769553119081595,41.46169256463761,-32.192418708001064,-17.336003813487988,6.3769553119081595,9.745285293237544,0.9546663613873708,-0.5047176412419326,6.3769553119081595,1.0855802704518125,-0.5145350265818436,-0.055237073674203205,-3.0898598617561204,0.0030675878944520264,0.8553533481188638,-0.0975057455620111
2025-05-02 13:51:29.500,6.426561436480203,-0.07484877913268387,-0.0432323109764094,0.17374702939767586,6.426561436480203,0.3492084590683425,-0.07083496193820518,0.03478257404537208,6.426561436480203,41.30117331551515,-31.863849033453604,-17.689057392396062,6.426561436480203,9.744904736378075,0.976237536170433,-0.4725870217939351,6.426561436480203,1.0707805136322022,-0.5082233232074771,-0.05537405802850908,-3.0931472548803343,0.004620571516886198,0.8590817093026363,-0.09971684857075591
2025-05-02 13:51:29.550,6.477098403278595,0.1459864826527795,-0.13103364070969528,-0.4544743250228743,6.477098403278595,0.25954253955888285,-0.0977313275480097,0.033121175313456805,6.477098403278595,41.23439098438193,-31.529444625605592,-17.968977475703596,6.477098403278595,9.744477118466792,1.002473101301262,-0.41538214407716295,6.477098403278595,1.055428373673123,-0.5017119942353959,-0.05511886024751503,-3.0990053486388858,0.007412254729370686,0.8628857918372066,-0.10240593561867234
2025-05-02 13:51:29.600,6.528333622432271,0.2412047327364324,-0.11639085367390888,-0.679036335615224,6.528333622432271,0.02713724335998582,-0.05002795162856035,-0.0027796854238440485,6.528333622432271,41.28157034564973,-31.395835239792838,-18.027559208369798,6.528333622432271,9.744657517409282,1.01441986988917,-0.37763251924190727,6.528333622432271,1.0493803881972885,-0.4991778940685903,-0.05470542812947303,-3.1028722168565057,0.00923393287824041,0.8643658601709356,-0.1036302541576942
2025-05-02 13:51:29.650,6.580034316042046,0.13049410284345972,0.009818330097615121,-0.5151950905829866,6.580034316042046,-0.21119227201128674,0.02346801484624553,-0.025691866996917397,6.580034316042046,41.35133662724005,-31.49667209011699,-17.781288605803418,6.580034316042046,9.745342137650685,1.0052319324282597,-0.38238112159473703,6.580034316042046,1.0562097055711992,-0.5021267012493931,-0.05440375438115485,-3.102389104005771,0.008979446857105892,0.8626585975702832,-0.10268839229835355
2025-05-02 13:51:29.700,6.631967661933352,0.019364894418160486,0.19195813687813565,0.04144284898980434,6.631967661933352,-0.28128632111771634,0.09483424564208442,-0.03208481995434099,6.631967661933352,41.428823336799205,-31.775458361218938,-17.440235373282903,6.631967661933352,9.74495249867449,0.9850185272492596,-0.43659968187366344,6.631967661933352,1.0717225341360905,-0.5086922247044637,-0.05486958251203539,-3.096834470941751,0.006497103818803642,0.8587837379071729,-0.10061620977380242
2025-05-02 13:51:29.750,6.68390094799408,-0.13663912042875426,0.23038503925054096,0.4687914286903615,6.68390094799408,-0.13781920925199606,0.06543418472776065,-0.026556234434029973,6.68390094799408,41.431869321881024,-32.010827295263404,-17.222341783785918,6.68390094799408,9.74429792431157,0.9650132613111781,-0.5004704838126499,6.68390094799408,1.0849303607060088,-0.5142295010841231,-0.05560591511947419,-3.0902906514952684,0.0035167011590797044,0.8554745325756951,-0.09856601308030685
2025-05-02 13:51:29.800,6.735601621002712,-0.17380474235891016,0.17183078030989932,0.5508185701232508,6.735601621002712,0.09462961895751744,-0.002150113440372717,-0.0050389255782901845,6.735601621002712,41.38085286244934,-32.08032721672866,-17.22778451203748,6.735601621002712,9.743983301521261,0.9570722343248568,-0.5238753747042125,6.735601621002712,1.0880431179046601,-0.5155232845430692,-0.05585612979838026,-3.0878930431119955,0.002367693409948983,0.8547091995759704,-0.09775201613637063
2025-05-02 13:51:29.850,6.786836808021639,-0.09214741555790083,0.011451668459004326,0.36883894004477313,6.786836808021639,0.29303621459685825,-0.05040932616165386,0.011676810768150022,6.786836808021639,41.20946339427184,-31.935041563661027,-17.45272618955485,6.786836808021639,9.7441861742631,0.9644805312855528,-0.509032529029618,6.786836808021639,1.0793498030172843,-0.5118293018881598,-0.05578537963272023,-3.089410975066361,0.0029655611864008924,0.8569424011737138,-0.09851094967858229
2025-05-02 13:51:29.900,6.837373742874981,0.05566713278111411,-0.14098722015155354,-0.23228540949121035,6.837373742874981,0.29284679977731354,-0.105878067472494,0.025669326559458177,6.837373742874981,41.13439721238651,-31.665386721026444,-17.731850442241722,6.837373742874981,9.744739176071034,0.9834840405661239,-0.45631319139882154,6.837373742874981,1.0643597059616248,-0.5054933299385393,-0.05528949025556121,-3.0948117740516374,0.005362074969234081,0.860702736730606,-0.10045889103561718
2025-05-02 13:51:29.950,6.886979843317507,0.22870839581058783,-0.15527489054174884,-0.6230255728469716,6.886979843317507,0.10214578918504853,-0.07267569985006259,0.00989230138147665,6.886979843317507,41.160033816891215,-31.470101878915433,-17.862108613839005,6.886979843317507,9.745259420854431,1.001577437126654,-0.3977611610372998,6.886979843317507,1.0536739596442128,-0.5010122068638497,-0.054614457910536936,-3.100810722791455,0.008129309173771318,0.863345201286834,-0.10231329712233317
2025-05-02 13:51:30.000,6.936481260471316,0.15840761759017224,-0.08534475986568166,-0.5952351707751132,6.936481260471316,-0.1498689485197166,-0.0017099180499782149,-0.009219638691099258,6.936481260471316,41.26685854327161,-31.46954044084179,-17.70624983638599,6.936481260471316,9.746061494706346,1.004635525634843,-0.37816060934543233,6.936481260471316,1.0546702719255205,-0.5014982179715612,-0.05421381106161728,-3.102819709176101,0.009098447225789567,0.8631063279620271,-0.10262631144988064
2025-05-02 13:51:30.050,6.986401531427574,0.011380265408661336,0.14104101597306665,-0.09942313013495599,6.986401531427574,-0.2558864453803138,0.06731110705987575,-0.01793652689627144,6.986401531427574,41.398186871722125,-31.664968978775207,-17.34974689617028,6.986401531427574,9.746057816987268,0.9960431718167826,-0.4083456853828855,6.986401531427574,1.065894873139932,-0.5062680417555583,-0.05455638809378473,-3.0997263345165798,0.007847970519969018,0.860309881078252,-0.1017451677278966
2025-05-02 13:51:30.100,7.036321791001984,-0.09493151039541903,0.23124647583073793,0.20785567929562448,7.036321791001984,-0.1737536018718655,0.004406804110342559,-0.018030466580012363,7.036321791001984,41.532888530740195,-31.887747797043527,-17.033161218460943,7.036321791001984,9.745944071752579,0.9834964162332065,-0.44190465971597315,7.036321791001984,1.076992257125868,-0.5109573817710582,-0.05486534937331183,-3.09628980547786,0.006358483005014891,0.8574964741868599,-0.10045912195775566
2025-05-02 13:51:30.150,7.086242084039026,-0.08733404911075046,0.24682333065726222,0.2942654141576032,7.086242084039026,-0.050974232597506795,-0.041043343980273546,-0.02616516076601474,7.086242084039026,41.58347119595909,-31.972539699883527,-16.77756404565491,7.086242084039026,9.746810171597998,0.9711180959459788,-0.4343935942878678,7.086242084039026,1.0825995326077806,-0.5134173371312375,-0.054132173189160554,-3.097064336396111,0.006548386414524022,0.8560899440938681,-0.0991900709977786
2025-05-02 13:51:30.200,7.1361623581822,-0.11870861143529865,0.17239411622753828,0.3952018536499841,7.1361623581822,0.06800773349050065,-0.05260310191096695,-0.008407019122475493,7.1361623581822,41.585834337781456,-31.934753005376862,-16.721339107059976,7.1361623581822,9.748439384799477,0.9638981292528361,-0.4111094777621907,7.1361623581822,1.0820827040444239,-0.5133068343219395,-0.05316393831152895,-3.0994525633800807,0.007372733446282956,0.8562951911352362,-0.09844938813262527
2025-05-02 13:51:30.250,7.1860825929441825,0.0017270880537266487,0.03482283254681753,0.09904474737502193,7.1860825929441825,0.10889961422705458,-0.05148177700581822,-0.0012315732081765887,7.1860825929441825,41.52790547261993,-31.77383585042895,-16.79184110059053,7.1860825929441825,9.749410568872955,0.9671197187865478,-0.38192328115045554,7.1860825929441825,1.0770890017573909,-0.5112332607409379,-0.05254386821012234,-3.1024438879237453,0.008595712666873064,0.8575533240619355,-0.0987796180008881
2025-05-02 13:51:30.300,7.236002841933476,0.09465334419449196,-0.06980788480357486,-0.22723849542118219,7.236002841933476,0.02326500615830125,-0.037068451248057334,-0.012561229423192165,7.236002841933476,41.49385282787698,-31.662603773993013,-16.82832137954823,7.236002841933476,9.749850408105978,0.9680334104996022,-0.3529181874522709,7.236002841933476,1.0734222620195402,-0.5097079791273577,-0.05189329044561492,-3.1054194865522966,0.009807820497372631,0.8584091064156812,-0.09887394390695434
2025-05-02 13:51:30.350,7.285923110841,0.04000658538828795,-0.12503350544729314,-0.18592375161067598,7.285923110841,-0.08010075418995002,0.03422933771754767,-0.02927136635820286,7.285923110841,41.43026256072226,-31.71638732767891,-16.813858558637044,7.285923110841,9.75047299149958,0.9600321573378464,-0.35421439671082067,7.285923110841,1.0750698631215696,-0.5104376829465326,-0.051567821912889514,-3.1052901594848525,0.009581809005438998,0.8580119038589984,-0.09805422345902697
2025-05-02 13:51:30.400,7.33584336745613,-0.03026967479577302,-0.0009327543820873168,0.028789104872160947,7.33584336745613,-0.09208329945047244,0.05964303438167489,-0.01878571605922047,7.33584336745613,41.39753288500247,-31.868500083087564,-16.790135793974947,7.33584336745613,9.750672992272367,0.9500244533206522,-0.38422631343100017,7.33584336745613,1.0798154703491119,-0.5124327919796311,-0.05186236978398766,-3.1022162242057947,0.008111632964014978,0.8568658605878098,-0.09702860883950903
2025-05-02 13:51:30.450,7.385763636249836,0.023365470369995988,0.08800195751025999,-0.004572177168523165,7.385763636249836,-0.06211004517885655,0.022335399057724897,-0.0011935735355828219,7.385763636249836,41.39082554814986,-31.990412244819062,-16.77946495643033,7.385763636249836,9.749752633807844,0.9470431259914827,-0.4067541569246033,7.385763636249836,1.083774402632461,-0.5140571946173772,-0.05234030555889039,-3.099907521452394,0.0071573066169869385,0.8558272538507401,-0.09672338357810416
2025-05-02 13:51:30.500,7.435683950115657,0.017276345067548073,0.12347896454252973,0.07026335408720775,7.435683950115657,-0.018115688947687242,0.016838083044562916,-0.002726296456595818,7.435683950115657,41.411607058509624,-32.01202911874917,-16.72378877226293,7.435683950115657,9.749184101657514,0.9475639529804822,-0.417954631515518,7.435683950115657,1.0859791991973118,-0.5149749508291266,-0.05265737512421334,-3.098760009748938,0.006735297556489387,0.8552643035609212,-0.09677697984240477
2025-05-02 13:51:30.550,7.485604238486141,-0.11941168362936239,0.1444114351691219,0.22733833893021202,7.485604238486141,0.07141673542507067,0.016502227291186954,0.02241394011681527,7.485604238486141,41.38931093727246,-31.958828201827547,-16.76750676081735,7.485604238486141,9.748796680821535,0.9549436081585283,-0.4251264366535932,7.485604238486141,1.084890562829973,-0.5144992350061826,-0.05313279493286608,-3.098023340990368,0.006565085179510873,0.855579590554459,-0.09753317388202738
2025-05-02 13:51:30.600,7.535524421346901,-0.04599367633166848,0.03321437212058527,0.05665601306745702,7.535524421346901,0.13569682528566615,-0.027845831800660432,0.04327697245260853,7.535524421346901,41.35755635152618,-31.788381893985,-16.936095231062925,7.535524421346901,9.747128148235936,0.9760084280980382,-0.4192795338137978,7.535524421346901,1.079347928622117,-0.5120884892118939,-0.05392726487793323,-3.0986143544656937,0.007228824793725204,0.8569568968224384,-0.09969186999177479
2025-05-02 13:51:30.650,7.585444568354841,0.03729120543626383,-0.04376749603371151,0.04123627958131652,7.585444568354841,0.13590354757743872,-0.02156608021776859,0.021435308572347808,7.585444568354841,41.33869388464735,-31.580341813947847,-17.09841155650181,7.585444568354841,9.745784520984575,0.997580110437535,-0.3977634570910583,7.585444568354841,1.072566760788436,-0.5092001513394456,-0.054321976256261645,-3.100809838917903,0.008564024802275185,0.858674028658311,-0.10190215609914623
2025-05-02 13:51:30.700,7.635364755426883,-0.03855506466124028,-0.09202772847880422,0.032133111325956386,7.635364755426883,0.11845203482943216,-0.062741796486514,0.01978983142790942,7.635364755426883,41.31813133968905,-31.445499446842298,-17.25957990170641,7.635364755426883,9.746049306948064,1.0110216789374615,-0.3758019354307159,7.635364755426883,1.0660182795987836,-0.5064464056386523,-0.05430715789273176,-3.103054485643575,0.009693547983135768,0.8603823436631765,-0.10327915597335578
2025-05-02 13:51:30.750,7.685284931686171,0.08966050155009168,-0.09833110990522317,-0.21870172545359182,7.685284931686171,0.01843273603033908,-0.0489705959912434,0.006677870288282847,7.685284931686171,41.395830978713775,-31.40025296155675,-17.282591051933135,7.685284931686171,9.74602612990575,1.0224123117070378,-0.34128746863839454,7.685284931686171,1.0623169868383844,-0.5049270199518445,-0.05392181548234791,-3.1065893183434885,0.011415493096024527,0.8612941439535623,-0.10444644899226035
2025-05-02 13:51:30.800,7.735205003118645,0.051578641012843256,-0.10063312088193979,-0.1986837285765228,7.735205003118645,-0.10082244193810984,-0.020437510377599416,-0.0073736411471588634,7.735205003118645,41.48790489499118,-31.47754592006309,-17.178531146994324,7.735205003118645,9.746135624072151,1.021483553431331,-0.3268089419931578,7.735205003118645,1.0645042626710104,-0.5059003082746388,-0.053515964173379754,-3.1080747278887086,0.012093973751683763,0.8607100734954487,-0.10435153131475414
2025-05-02 13:51:30.850,7.785125182337213,-0.04890655328625993,-0.015065773002819678,0.053959110070369465,7.785125182337213,-0.12340722127897918,0.03254101539773127,-0.012576541896379795,7.785125182337213,41.56830816380082,-31.66099953106797,-17.0211362114042,7.785125182337213,9.746149826182792,1.0168454743576834,-0.3367408451463389,7.785125182337213,1.070710426288674,-0.5085574359934417,-0.05353260661585001,-3.107057681125142,0.011698031489543572,0.8591574474932815,-0.10387611886340936
2025-05-02 13:51:30.900,7.835045482772455,-0.05020475433039927,0.09961195204582375,0.25443063495332885,7.835045482772455,-0.026306526645983343,0.02142054404377381,-0.020667953800197317,7.835045482772455,41.56329453119319,-31.824817193304817,-16.949891466972197,7.835045482772455,9.746328423371756,1.009206792800545,-0.35679797718499007,7.835045482772455,1.074761616036182,-0.5102684564128748,-0.05368323689543483,-3.105003631165293,0.010715835448920744,0.8581661031452442,-0.10309308327023638
2025-05-02 13:51:30.950,7.884965761696005,-0.031521382505549186,0.06493370609787723,0.12449001234465645,7.884965761696005,0.07155505549640241,-0.014909166939956106,-0.019408779153665488,7.884965761696005,41.50917270189131,-31.876990770460086,-16.963870061416493,7.884965761696005,9.747292047356291,1.0018388114715886,-0.35500762233814687,7.884965761696005,1.0734404110832774,-0.5097260106507662,-0.05331351792828123,-3.105191495199479,0.010561961475429593,0.8585168813890907,-0.10233796445823524
2025-05-02 13:51:31.000,7.934886042440652,-0.01937973959371485,0.012075075610630544,-0.0824003986665031,7.934886042440652,0.11961506943290075,-0.06483026842102595,-0.010219216685077843,7.934886042440652,41.405401383691284,-31.811445685255578,-17.045513645696794,7.934886042440652,9.749007070278704,0.9967740716128656,-0.33483130459208427,7.934886042440652,1.0682094951880712,-0.507553795574604,-0.05257923551410029,-3.423620989807595,0.011171016631250127,0.8598583844035645,-0.10181888108676082
2025-05-02 13:51:31.050,7.9848064226626425,0.05239392396944676,-0.014676542363079822,-0.30725841259714676,7.9848064226626425,0.06868195446829017,-0.07383435686186214,0.004853878460720305,7.9848064226626425,41.410051999392316,-31.701479711288137,-17.031498451499715,7.9848064226626425,9.749960997194966,0.9997634487213458,-0.2899087136670767,7.9848064226626425,1.0631309067513048,-0.5054829742225968,-0.05158507773929493,-3.032784305783925,0.01310089234708517,0.8611012889692763,-0.10212541731829314
2025-05-02 13:51:31.100,8.034726782738767,0.06923402004914556,-0.03740266647113482,-0.2530055566630024,8.034726782738767,-0.020268523333581215,-0.02683124504896596,0.0012476503465863123,8.034726782738767,41.44076493269924,-31.64054531284153,-16.93382930444397,8.034726782738767,9.750061015294145,1.0029718044205957,-0.26446946493412526,8.034726782738767,1.0619452135180918,-0.505028047151356,-0.05108195072127546,-2.727822239759932,0.014284594894140275,0.8613725209683853,-0.1024542053587135
2025-05-02 13:51:31.150,8.084647001452343,0.0324842331226612,0.012387988470036108,-0.040590539021189864,8.084647001452343,-0.06789199362285361,0.02907574528823927,-0.01755054979118367,8.084647001452343,41.498913709378286,-31.679016013690163,-16.821153191697668,8.084647001452343,9.750105084157061,1.0004140306453375,-0.27006898327149037,8.084647001452343,1.0644282689057345,-0.5060842574972341,-0.0510927330606675,-2.5075558856049405,0.014034271749039358,0.8607534290245417,-0.10219182604153526
2025-05-02 13:51:31.200,8.134567335464034,-0.005617643133617201,0.050270019707876645,0.04711380418721544,8.134567335464034,-0.07379868693979764,-0.013044763825364927,-0.026720308109201837,8.134567335464034,41.565623932951915,-31.786665440272696,-16.692039244325052,8.134567335464034,9.750738741311052,0.9892845265579997,-0.28076311822374556,8.134567335464034,1.067906037868159,-0.5075598333085403,-0.05088177245498053,-2.3746486664949362,0.013364255821484415,0.8598660881923736,-0.1010514957109275
2025-05-02 13:51:31.250,8.184487702369266,0.0066520136146153925,0.05172626392361425,0.09747027433343057,8.184487702369266,-0.08694473020906103,0.0026957197692288673,-0.030146698219080833,8.184487702369266,41.68516154255911,-31.905397883773205,-16.523925354430766,8.184487702369266,9.751729382469586,0.9766443731987808,-0.27656596941081263,8.184487702369266,1.0720215520792946,-0.5093602258464967,-0.05021588228075964,-2.3311467674433843,0.013329737473392134,0.8588163762347848,-0.0997565546072943
2025-05-02 13:51:31.300,8.234407906741716,-0.12021163712471543,0.07681752171800621,0.3225272973849164,8.234407906741716,-0.035152006545267074,0.0390120243223815,-0.016656667547135507,8.234407906741716,41.6851953679866,-31.984478973175342,-16.44759877167108,8.234407906741716,9.752828859151442,0.9648119224056451,-0.2938203102523094,8.234407906741716,1.075401612697907,-0.5108002107600512,-0.05010028349732224,-2.5842240611192557,0.012335426403898151,0.8580076892867983,-0.09854392421195841
2025-05-02 13:51:31.350,8.284328224932638,-0.09248141181984178,0.08016815004520593,0.2342800715092274,8.284328224932638,0.03528814386654572,0.011575104598398852,0.010392996318864131,8.284328224932638,41.670936837007496,-31.978166657561268,-16.480917749649482,8.284328224932638,9.75234555220016,0.9661804937198911,-0.30632300066907564,8.284328224932638,1.0753078806760616,-0.5107114704545095,-0.05050522860577447,-2.55657970101066,0.011818173923840448,0.8580091591286085,-0.09868455141679916
2025-05-02 13:51:31.400,8.33424863212961,0.02994690507834058,0.06192207359095154,0.13709081594403155,8.33424863212961,0.07713925128147062,0.004161070210811443,-0.0006543714023414384,8.33424863212961,41.58428290662798,-31.892302100975275,-16.57072201886659,8.33424863212961,9.751444251329277,0.9719458140267135,-0.3067826440933308,8.33424863212961,1.0724215890687252,-0.5094488171090248,-0.05081158102631431,-2.4393622582846493,0.011880946591119768,0.8587093534286251,-0.09927561461046658
2025-05-02 13:51:31.450,8.384168896256758,-0.06457458078799568,-0.010331356955376975,0.041899185430622356,8.384168896256758,0.10002561354692749,-0.0012639749921111664,0.00265388709725271,8.384168896256758,41.46026023740267,-31.806236313328675,-16.70551762080697,8.384168896256758,9.75164599858262,0.9757985116062785,-0.3029807964027556,8.384168896256758,1.0679000761858082,-0.5075206938735233,-0.05087869595571013,-2.498334567268911,0.012023630557745208,0.859881778016975,-0.09967017572639851
2025-05-02 13:51:31.500,8.434089034045403,0.03880936520129245,-0.03241585393985155,-0.25336257239727733,8.434089034045403,0.06045265659724658,-0.03289644105288283,0.006817219560935536,8.434089034045403,41.354806504327485,-31.707458880231176,-16.840492593547445,8.434089034045403,9.751456461705423,0.9820771139030862,-0.2936326250809447,8.434089034045403,1.0635235391157436,-0.5056431563947158,-0.05094644328612252,-2.7336289443085215,0.012488866024633574,0.8609648138299242,-0.10031356050054498
2025-05-02 13:51:31.550,8.484009484948666,0.168561979818578,-0.02402496962504707,-0.4073681087399198,8.484009484948666,-0.06371695311753081,-0.0263400288498451,-0.01743102640538786,8.484009484948666,41.399094630955084,-31.685415343526994,-16.77411367420832,8.484009484948666,9.751270678303522,0.9822013284493906,-0.27419907944094796,8.484009484948666,1.0634520988755756,-0.5056410682868906,-0.05050064959850651,-2.3460369195712496,0.013358137604265677,0.8609118092262832,-0.1003270894665666
2025-05-02 13:51:31.600,8.533930017687412,0.04548262461969778,0.00997878891833057,-0.1887529462689741,8.533930017687412,-0.16710908820718087,0.037786412321026884,-0.03350161089798517,8.533930017687412,41.46729730637211,-31.82520507243415,-16.61806657697775,8.533930017687412,9.75219479787346,0.9687084633166914,-0.28287449956607535,8.533930017687412,1.0695788671562763,-0.5082807894346117,-0.050101530690605536,-2.3597983910074998,0.012780265351939149,0.8593818704144945,-0.09894468668438623
2025-05-02 13:51:31.650,8.583850557596723,-0.0722943864554891,0.10369357159432509,0.1785222687383207,8.583850557596723,-0.148982072824782,0.08806521485240543,-0.026140555583096938,8.583850557596723,41.521269158494604,-32.02043300530857,-16.506795752465347,8.583850557596723,9.752647113719407,0.9538411058265062,-0.32619364393037326,8.583850557596723,1.0780758221088198,-0.5118521494731041,-0.050507836095478736,-2.457883484564188,0.01069439972031648,0.8572872674429068,-0.09742101313768835
2025-05-02 13:51:31.700,8.63377128929016,-0.08840764850441699,0.0754750938265373,0.3028190857067765,8.63377128929016,-0.04330906885782471,0.02371051664559703,-0.01216260765381767,8.63377128929016,41.54159752905796,-32.142439138417,-16.465914034899058,8.63377128929016,9.752276954400713,0.9443583673904186,-0.35985130707151636,8.63377128929016,1.0830740126629745,-0.5139171729094115,-0.050969125570413165,-2.6448365544544736,0.009096578989972263,0.8560170983034174,-0.09644976057614298
2025-05-02 13:51:31.750,8.683691999016629,-0.08048294080040279,0.020546969107068914,0.310739987214414,8.683691999016629,0.0907330221194768,-0.011891849191820313,-0.003787039835136254,8.683691999016629,41.47477328782881,-32.12742194329116,-16.520493933759965,8.683691999016629,9.752294242623432,0.9428485553541741,-0.3607756542633795,8.683691999016629,1.0819602994739117,-0.5134426954200154,-0.050933829402101304,-2.923018195066555,0.008992872019581355,0.8563098130573445,-0.09629490730882635
2025-05-02 13:51:31.800,8.733612608013752,-0.10254846255568663,-0.01611749594944066,0.14523361821758318,8.733612608013752,0.1865240355324014,-0.04242216398633404,0.014448615907754422,8.733612608013752,41.38660020806027,-31.9910030622861,-16.674456730200177,8.733612608013752,9.752785406420925,0.950079004336953,-0.3413452334184387,8.733612608013752,1.0746575643728764,-0.5103603446613786,-0.05073926206382089,-3.2911590021155193,0.009839716538850313,0.8581948497239542,-0.09703523315839216
2025-05-02 13:51:31.850,8.783533299073994,0.11292947348744888,-0.02671906732582084,-0.29622584519761314,8.783533299073994,0.12407038858060548,-0.08132489213984836,0.021344649033634044,8.783533299073994,41.36061445471856,-31.814847747873944,-16.816288070856594,8.783533299073994,9.752503411533494,0.9645934153496376,-0.30158188947941256,8.783533299073994,1.066212120615293,-0.5067972682483436,-0.050404315519874385,-3.2161428096837086,0.011757697194973075,0.8602758342127106,-0.0985226655385133
2025-05-02 13:51:31.900,8.833453799943568,0.21412007098306088,0.005384059023538761,-0.428258794141373,8.833453799943568,-0.050791798171637356,-0.033747766889514585,-0.012398643886978767,8.833453799943568,41.35962149524477,-31.73752552379269,-16.74728863767259,8.833453799943568,9.75259911479836,0.9697070110875504,-0.2687810696025097,8.833453799943568,1.0641911519766862,-0.5059864463812889,-0.04982071941638019,-3.114053132042227,0.013291335798261363,0.8607206713831655,-0.09904710238691006
2025-05-02 13:51:31.950,8.883374116996306,0.03502012615893003,0.0346708002086516,-0.21819058630177907,8.883374116996306,-0.20250119985643578,0.051575094538291594,-0.030150924005604363,8.883374116996306,41.41305857127095,-31.86471840740647,-16.58071715170413,8.883374116996306,9.75347345681118,0.9583703565981996,-0.27789385144865775,8.883374116996306,1.0709431220170522,-0.5088902052191155,-0.04951716532573484,-3.113122538807116,0.012764508064706383,0.8590352286106053,-0.09788547530180568
2025-05-02 13:51:32.000,8.933294346067365,-0.051998742753805095,0.1404749355446214,0.22164774476526544,8.933294346067365,-0.19305706142007245,0.10879625143148988,-0.029737607841890168,8.933294346067365,41.43432839133533,-32.05589100230832,-16.463920148658346,8.933294346067365,9.753537773566856,0.9418936119965835,-0.33293347271279256,8.933294346067365,1.0816776670520967,-0.5133903084144571,-0.050156258621619425,-3.1074839338587408,0.010179459639553759,0.8563681592316632,-0.09619697858910917
2025-05-02 13:51:32.050,8.983214696924192,-0.11237473223865475,0.12180616630965801,0.3507909759306788,8.983214696924192,-0.06362607140953744,0.03990630562349923,-0.015417363896688132,8.983214696924192,41.46124475296849,-32.20639605755581,-16.455227525973417,8.983214696924192,9.75312079527107,0.9295830077868259,-0.376461736764853,8.983214696924192,1.0883212281167678,-0.5161357230806274,-0.0507464730160014,-3.1030265598148348,0.008112919062504529,0.8546769940364208,-0.09493610574051901
2025-05-02 13:51:32.100,9.033135000091077,-0.1168671497517883,0.07317118240429217,0.3614688994910711,9.033135000091077,0.10027425954582976,-0.0033454729265822007,-0.003656723912770578,9.033135000091077,41.450828527348406,-32.2229991708325,-16.557689049638554,9.033135000091077,9.753056995456197,0.9268987867006464,-0.3843347736222523,9.033135000091077,1.0874512362932194,-0.5157473836216006,-0.050839883485013664,-3.1022199762163103,0.0076781554427573185,0.8549085208666302,-0.09466093289349091
2025-05-02 13:51:32.150,9.083055365516667,-0.12264462433291791,-0.00534584914099001,0.1792548659726867,9.083055365516667,0.22027794938091688,-0.05231090257495724,0.02281738987283698,9.083055365516667,41.40978967626622,-32.0948667014952,-16.77724119244204,9.083055365516667,9.753340475492484,0.9370380489846134,-0.3633460098284038,9.083055365516667,1.0790313634171722,-0.5121837536620625,-0.05073729291069461,-3.1043668024436593,0.008641119643339884,0.8570723987654307,-0.09569929213238888
2025-05-02 13:51:32.200,9.132975686211598,0.11003625445363992,-0.04966883867182961,-0.3082431120702363,9.132975686211598,0.16575884166714244,-0.07822594448472536,0.02389725554400156,9.132975686211598,41.40358336833262,-31.912671837439984,-16.963520752522257,9.132975686211598,9.752856607727193,0.9554738880518783,-0.3194534264972343,9.132975686211598,1.068704003975705,-0.507821551641465,-0.05046909949604282,-3.1088615376504234,0.010795720454105647,0.8596361444358303,-0.09758835983199632
2025-05-02 13:51:32.250,9.182896019312741,0.20810628142329698,-0.02966312692226375,-0.4756728440945115,9.182896019312741,-0.00849694353126702,-0.03428774829736827,-0.009594801865900178,9.182896019312741,41.42852178542496,-31.83877620385807,-17.004781691900263,9.182896019312741,9.752794713807937,0.9627318057824741,-0.2865540473577701,9.182896019312741,1.0645497103723185,-0.5060966831416254,-0.04998092686386126,-3.1122324630070555,0.01233792003333355,0.8606356246290076,-0.09833224277052459
2025-05-02 13:51:32.300,9.232816385193605,0.07905830590024579,0.012648570712871714,-0.31912861509078394,9.232816385193605,-0.18313819889005298,0.048282151528588675,-0.03149608534181145,9.232816385193605,41.51163246137011,-31.999444594305512,-16.850968175501297,9.232816385193605,9.753511272516148,0.9529413439581563,-0.2931188442496087,9.232816385193605,1.0696431918178806,-0.5082960650783859,-0.04968914972107904,-3.111562513404603,0.011924443716660016,0.8593744195867611,-0.09732902631895003
2025-05-02 13:51:32.350,9.282736700539067,-0.037328924947185226,0.14290163450993534,0.13853059374212956,9.282736700539067,-0.2166202838083253,0.10888553942469063,-0.029596469911262628,9.282736700539067,41.54751114567409,-32.30485016082558,-16.669733868223286,9.282736700539067,9.753533102569321,0.935944070010447,-0.34653783771902275,9.282736700539067,1.0805225926903592,-0.5128672859051562,-0.05026571822185654,-3.106090496257468,0.00940316019813535,0.8566733234369542,-0.09558725829154442
2025-05-02 13:51:32.400,9.33265702020963,-0.12202317128747386,0.13819263436670803,0.3649380675971664,9.33265702020963,-0.09981137281565983,0.04892393220237759,-0.013176910086406847,9.33265702020963,41.509639734655096,-32.56732687072051,-16.55395805163265,9.33265702020963,9.752936419081772,0.9238931084484315,-0.3956703696491156,9.33265702020963,1.088754723518669,-0.5162808166819983,-0.05100345299299693,-3.1010585362844516,0.0071335677501217,0.8545814435898004,-0.09435313429461059
2025-05-02 13:51:32.450,9.38257743343898,-0.1308228791023805,0.09477312628678153,0.413724456118349,9.38257743343898,0.07538461458363477,0.00335737591580053,0.0007140001377616335,9.38257743343898,41.44262485459701,-32.61497775702495,-16.602582228156,9.38257743343898,9.752482140931805,0.9227206832644272,-0.4077615598220753,9.38257743343898,1.0895066730805272,-0.5165751297644963,-0.051271843792018525,-3.0998197885680487,0.006592586584601913,0.854393954090597,-0.09423314148771268
2025-05-02 13:51:32.500,9.432497846440693,-0.11874332794798037,0.007807924760840091,0.2563768559545237,9.432497846440693,0.2274451337754732,-0.05235648856526537,0.02507625631857801,9.432497846440693,41.334777483462275,-32.440867717894164,-16.828437602436665,9.432497846440693,9.752490097242115,0.9343304159573474,-0.38936540616447013,9.432497846440693,1.0815743673788583,-0.5132151050278814,-0.05129547534774067,-3.101700529696187,0.007490432738014594,0.8564376620777168,-0.09542223805933893
2025-05-02 13:51:32.550,9.482418151428673,0.09153226980794305,-0.07513718247149652,-0.30450435964990025,9.482418151428673,0.19012885257636525,-0.09045015431474918,0.026785068238688182,9.482418151428673,41.273685304157205,-32.158209712244215,-17.081925512638445,9.482418151428673,9.752183458148803,0.9543927835129626,-0.3414219388113679,9.482418151428673,1.0702753688057796,-0.5084467424210979,-0.050984225898583625,-3.1066096237708845,0.009836605964211402,0.8592556875266575,-0.0974777954806488
2025-05-02 13:51:32.600,9.532338405312158,0.21933300396796493,-0.058540839343352136,-0.5165380076368448,9.532338405312158,0.009506296307404322,-0.05115529574032686,-0.005949470318749651,9.532338405312158,41.280663628567176,-31.957729241786936,-17.147135146347836,9.532338405312158,9.752296703337958,0.9642937384025396,-0.29999538579374707,9.532338405312158,1.064999065952385,-0.5062545746597491,-0.050390183804201835,-3.110853767023292,0.011791755064031535,0.8605318005450936,-0.09849240302856849
2025-05-02 13:51:32.650,9.58225852762149,0.10697905155061453,-0.005721335511506151,-0.38217385292582423,9.58225852762149,-0.18546424870724496,0.025315850537046772,-0.0338114401533992,9.58225852762149,41.36666169422222,-31.973139224463765,-16.99575257912665,9.58225852762149,9.753377104985894,0.9551919278406297,-0.2955206839871203,9.58225852762149,1.0696582876527048,-0.5082878337746635,-0.04984774956576985,-3.1113158407605046,0.011867782429912271,0.8593614234523781,-0.09755997338934808
2025-05-02 13:51:32.700,9.632178602468517,-0.02078216892966448,0.14758385523923145,0.06668228679326527,9.632178602468517,-0.2504777622233327,0.10786517670265229,-0.0412193188000914,9.632178602468517,41.39496651318255,-32.16800611091391,-16.778817919751187,9.632178602468517,9.753981661669918,0.9340269842405582,-0.34257921311709766,9.632178602468517,1.0814597227888674,-0.5132800389344515,-0.050073303740497024,-3.106497773079542,0.009542628630709912,0.8564270959482312,-0.09539125338897012
2025-05-02 13:51:32.750,9.682098750728462,-0.13378399696190768,0.17550850110850283,0.3978464372457601,9.682098750728462,-0.12945412846156246,0.05763855125361065,-0.020467922892985952,9.682098750728462,41.40320463736307,-32.33653402261809,-16.653339071207153,9.682098750728462,9.753770859641122,0.9166238271149796,-0.3972756509668963,9.682098750728462,1.0913610350032494,-0.5174065927110122,-0.0507095016649984,-3.100897026150984,0.006930317734869572,0.8539228313358657,-0.09360871569677474
2025-05-02 13:51:32.800,9.732018846518088,-0.12728120047679767,0.13413364317295573,0.46876708260426886,9.732018846518088,0.05766834184041127,0.005025710400610749,-0.0028869459483694287,9.732018846518088,41.364168016838406,-32.39037777204899,-16.623852574630813,9.732018846518088,9.753330335332095,0.9127174543822463,-0.41167924365905767,9.732018846518088,1.093313958438838,-0.5182066284015237,-0.05092962147835756,-3.0994228310880976,0.006251383980809749,0.8534129563479466,-0.09320873336600805
2025-05-02 13:51:32.850,9.781938949250643,-0.1438552382700695,0.03046058546972571,0.37354020306204544,9.781938949250643,0.23613158329661418,-0.051160196881982416,0.023057322640901195,9.781938949250643,41.280079576185635,-32.2986942602483,-16.809375981684372,9.781938949250643,9.753317159472937,0.9221250197607633,-0.39498972109514513,9.781938949250643,1.0857246054631307,-0.5149868513441921,-0.050911905184908866,-3.101129306337343,0.007032105417922503,0.8553601946878785,-0.09417216983247885
2025-05-02 13:51:32.900,9.831859198809028,0.05422910197451688,-0.08691903213115705,-0.18486481893909826,9.831859198809028,0.24588988818975102,-0.08743588300769203,0.027967398063147342,9.831859198809028,41.20724472366023,-32.10269672954007,-17.04721982017824,9.831859198809028,9.753098462992325,0.9429110327393655,-0.3471379424628389,9.831859198809028,1.072747133240348,-0.5095018295384082,-0.05063142746728925,-3.10602840135294,0.009347055024908109,0.8586187349764626,-0.09630180276796654
2025-05-02 13:51:32.950,9.881779542153835,0.22026008729551563,-0.08088413114632433,-0.49094622804025817,9.881779542153835,0.08309704215723893,-0.04527378712361797,0.0024700675218307716,9.881779542153835,41.16061789772738,-31.942896247632653,-17.164491652553217,9.881779542153835,9.752868480470415,0.9563466703858946,-0.3032958374630695,9.881779542153835,1.0641288442424262,-0.5058833796669752,-0.050142878818724854,-3.11051892580184,0.011418625821932952,0.8607541695166343,-0.09767849669034064
2025-05-02 13:51:33.000,9.931699970065766,0.08715682261880624,-0.043090297789658547,-0.3892344073853762,9.931699970065766,-0.10738561538619071,0.030123163263871485,-0.019765590857236847,9.931699970065766,41.2149093663499,-31.98666835687107,-17.118427146787173,9.931699970065766,9.753252359567,0.9535450069981365,-0.2999461454492016,9.931699970065766,1.0650353684993392,-0.5063007912126103,-0.049914595681656695,-3.1108627041826624,0.01151648126541526,0.8605521129456363,-0.09739126957912168
2025-05-02 13:51:33.050,9.981620332759713,-0.0004157403084003902,0.10984663105630335,-0.02981204988329363,9.981620332759713,-0.1767395874385517,0.06904029875889545,-0.0249066906282136,9.981620332759713,41.26920779212659,-32.148581878733324,-17.0175233996554,9.981620332759713,9.753325815301984,0.9424565840697839,-0.33618378456914483,9.981620332759713,1.0728205105414619,-0.5095835015608214,-0.05031453275651508,-3.1071507985188362,0.009825977028222682,0.8586309341039173,-0.09625494027694625
2025-05-02 13:51:33.100,10.031540670982688,0.0199765841313509,0.17438825547145442,0.07174193250625055,10.031540670982688,-0.15073856820107104,0.02857425819283537,-0.029190746959220755,10.031540670982688,41.32270630167369,-32.29833665683283,-16.869347511416034,10.031540670982688,9.753329656796193,0.9284260938926182,-0.36685747003853736,10.031540670982688,1.081256483893647,-0.5131370557703397,-0.050489135746212374,-3.1040112146751837,0.008333888708550893,0.8564831286781579,-0.09481765020023313
2025-05-02 13:51:33.150,10.081461032196996,-0.053428989336607495,0.14487270155759752,0.20392945043775296,10.081461032196996,-0.06884039858212854,0.005872427074711942,-0.028438708632706887,10.081461032196996,41.35904228726199,-32.39379222665363,-16.734341124776957,10.081461032196996,9.754348776569707,0.9121864470043975,-0.379799305260684,10.081461032196996,1.087046920023483,-0.515623302930201,-0.05009032546198933,-3.102689473724026,0.007495256674107415,0.8550424773667035,-0.09315365491652042
2025-05-02 13:51:33.200,10.13138139420803,-0.17210075327499252,0.06982750985351666,0.33604233533020333,10.13138139420803,0.07519552759600434,0.0032300772814032336,0.00893798396230129,10.13138139420803,41.330123680844,-32.365544999840736,-16.72883095196637,10.13138139420803,9.75521419379166,0.9082583761106076,-0.3819445746542207,10.13138139420803,1.0870696473725265,-0.5156590541391014,-0.04992528979567172,-3.102469390014429,0.007291296213647979,0.8551010825251052,-0.09275046325256221
2025-05-02 13:51:33.250,10.181301749845233,-0.0398172885874477,-0.020409520658176722,0.10924121774625395,10.181301749845233,0.18002775519660838,-0.04658304364192539,0.04605590726264127,10.181301749845233,41.304018439446395,-32.153658808639356,-16.88245899404961,10.181301749845233,9.754261838680648,0.9263960397639573,-0.36679137986162885,10.181301749845233,1.0802082835564786,-0.5127188717607212,-0.05034388590866635,-3.1040156045325524,0.008252809293930163,0.856827479910356,-0.09460854639270558
2025-05-02 13:51:33.300,10.231222104685704,0.12190083644230222,-0.05321892027645938,-0.1212035296574156,10.231222104685704,0.1640820106686833,-0.0356740053278549,0.03168216304471484,10.231222104685704,41.26425549344871,-31.882309849167836,-17.017333955920424,10.231222104685704,9.752789942256287,0.9511391423209397,-0.33381252596371475,10.231222104685704,1.0713135034884658,-0.5089374941191838,-0.050612919604231796,-3.1073866588311083,0.010132872629098755,0.8590470323168651,-0.0971431883407679
2025-05-02 13:51:33.350,10.281142433234109,0.006365524584991438,-0.06929960122513346,-0.12727155038998297,10.281142433234109,0.0969269400358306,-0.006916001179018893,0.019954852388828763,10.281142433234109,41.2132240917856,-31.704131610577,-17.15093447811958,10.281142433234109,9.752302421024806,0.9658418382575846,-0.32036992864054253,10.281142433234109,1.064674170332831,-0.506116342040931,-0.05088815412059635,-3.1087566054406235,0.010933983291476193,0.8607751347253213,-0.09864860566736089
2025-05-02 13:51:33.400,10.331062777261826,0.056062900834932594,-0.017339189516135917,-0.2748371417982483,10.331062777261826,-0.021489105981477324,0.010950505449100183,0.016654299488747082,10.331062777261826,41.206637630151526,-31.636342266945377,-17.188283618847016,10.331062777261826,9.751570217022774,0.9778254560852988,-0.31832582939782533,10.331062777261826,1.0625917304818981,-0.5052226477992476,-0.051333915331983684,-3.1089607206002547,0.011275360234234953,0.8613317247506788,-0.0998760027584303
2025-05-02 13:51:33.450,10.380983148150705,0.09904668102350572,0.07681578331039314,-0.21968386756677175,10.380983148150705,-0.14475420070703598,0.03236751700328166,-0.00031652420168711205,10.380983148150705,41.210816909327754,-31.69809684130981,-17.11443829303025,10.380983148150705,9.75070775810834,0.9806858030863681,-0.33327102813813014,10.380983148150705,1.066919438406497,-0.5070399181984504,-0.05182644808869704,-3.1074278289300716,0.010797901288730764,0.8602337841015675,-0.100169373922183
2025-05-02 13:51:33.500,10.430903461447432,-0.07065313510063245,0.10677582929920269,0.04583089478582876,10.430903461447432,-0.18412090880852802,0.05015116904521403,-0.007559765854498725,10.430903461447432,41.277600922840286,-31.883350562604793,-16.974112343954914,10.430903461447432,9.750401007833243,0.976204538700522,-0.36200119941679226,10.430903461447432,1.075658693596695,-0.5107386528726308,-0.052314548823124904,-3.1044844568464245,0.009627735762347952,0.858049249363199,-0.09971036865067189
2025-05-02 13:51:33.550,10.480823789085289,-0.1310601377636739,0.11171391723028004,0.282357700959524,10.480823789085289,-0.10969383911835381,0.030242410402458498,-0.009505105241785794,10.480823789085289,41.3406478490586,-32.036569889664456,-16.872328936525754,10.480823789085289,9.750283018615379,0.9704989391246085,-0.39170525829337877,10.480823789085289,1.0832960379747383,-0.513960152208079,-0.05278116594024304,-3.101441703334545,0.008355475009965436,0.8561428365111583,-0.09912580218054234
2025-05-02 13:51:33.600,10.530744201517908,-0.02924854693750264,0.025363778590256934,0.14074672177087375,10.530744201517908,-0.04560408650404657,-0.010859537222759197,-0.019464413233596357,10.530744201517908,41.378375991074456,-32.0939594971273,-16.810323299950415,10.530744201517908,9.75053010541955,0.9625863171600506,-0.3984480607693056,10.530744201517908,1.086916835056553,-0.5154993391800637,-0.05261974884271384,-3.1007545706216124,0.007951294794796688,0.8552007770692771,-0.098315358322056
2025-05-02 13:51:33.650,10.580664522554295,-0.013860159612871814,-0.06977912428281942,0.07917652734293391,10.580664522554295,-0.017758846173979118,-0.01718215594037782,-0.025926286395474233,10.580664522554295,41.38855661956868,-32.12299848792166,-16.77493264791853,10.580664522554295,9.75173547702999,0.9506276948985497,-0.392238129039129,10.580664522554295,1.0883671677701978,-0.5161552714436204,-0.05194218994400103,-3.1013965354025377,0.00795523068277805,0.854826781427906,-0.09709013734185605
2025-05-02 13:51:33.700,10.630584794193464,-0.038138862730424494,-0.13235663623452584,0.017905014403601257,10.630584794193464,-0.007841308477458474,0.01270079104737806,-0.01084521783120707,10.630584794193464,41.35747750377888,-32.15459994513957,-16.779987717564055,10.630584794193464,9.752749277518054,0.9421320809179433,-0.39024416779166604,10.630584794193464,1.088906389439759,-0.5164107037549452,-0.05151353492491148,-3.10160506341067,0.007833710182117272,0.8547010419758442,-0.0962195165808231
2025-05-02 13:51:33.750,10.680505153017583,-0.008688723594569965,-0.11642711826692745,0.0015949329001778729,10.680505153017583,-0.002254818303028613,0.044793455782053467,0.0061383842158463505,10.680505153017583,41.26203104654958,-32.16652109283953,-16.80561480044211,10.680505153017583,9.752217599677248,0.9419462481586867,-0.40583975978074416,10.680505153017583,1.0892456905987553,-0.5165134949945533,-0.05191480960162797,-3.1000059546518526,0.007151358964983964,0.8546194258591534,-0.09620050333788122
2025-05-02 13:51:33.800,10.730425475761244,-0.05334494353650624,-0.060209952737968565,0.07112998800714422,10.730425475761244,0.040150934212899815,0.0605243167017169,0.01526573024731401,10.730425475761244,41.167958065290925,-32.15413119798504,-16.852365268805126,10.730425475761244,9.750632444166007,0.948245335256747,-0.4321945576463922,10.730425475761244,1.0885257531942771,-0.5161200136245145,-0.0528851486175585,-3.097300405487423,0.006134480463100734,0.8548064875585153,-0.0968463433449497
2025-05-02 13:51:33.850,10.780345779383405,-0.10835693014968413,0.01191839782221565,0.09424291448546283,10.780345779383405,0.11816851348336165,0.024555534796489767,0.03351721655369019,10.780345779383405,41.05950252648566,-32.059229838764836,-16.959697035142632,10.780345779383405,9.748695643828489,0.9620038735249988,-0.4520418980439317,10.780345779383405,1.0846433697133249,-0.5143747236062279,-0.05401776756368147,-3.0952586403192655,0.005513087698485193,0.8557976288905076,-0.0982566396274584
2025-05-02 13:51:33.900,10.830266120793295,-0.019372555015802716,0.04122805689797857,-0.0896472246258754,10.830266120793295,0.15315517957402663,-0.02744667197996648,0.046693806009071956,10.830266120793295,40.99407434708043,-31.869482934058208,-17.100535565712,10.830266120793295,9.74678492134238,0.9855312772368966,-0.4421329894839316,10.830266120793295,1.0776217635264427,-0.5113433175466743,-0.05481662887657935,-3.0962646426298703,0.006376885930556124,0.8575615657727107,-0.10066787271940043
2025-05-02 13:51:33.950,10.88018642703328,0.057417490392389955,0.031959592605214,-0.1856832322556749,10.88018642703328,0.12232616846091501,-0.014630576579165113,0.037026633907083516,10.88018642703328,40.94289409219534,-31.650332662942606,-17.228428418708614,10.88018642703328,9.745177365426304,1.0091999609114233,-0.423918369759838,10.88018642703328,1.070596365891758,-0.5083344397948323,-0.05539383297145726,-3.098121472338885,0.007608251988808785,0.8593304334317147,-0.10309326605036709
2025-05-02 13:51:34.000,10.930106762866068,0.00914785831755276,-0.022751338904039797,-0.1409808512133062,10.930106762866068,0.05873003073323245,0.018092192480197337,0.03163735715765729,10.930106762866068,40.94896893267875,-31.489599011828094,-17.32839078036226,10.930106762866068,9.743534318812607,1.0282835330397284,-0.41935670132239133,10.930106762866068,1.066038388935262,-0.5063507599257272,-0.0561141707750005,-3.0985793166699587,0.008179331168538095,0.8604752569624359,-0.10504881421104036
2025-05-02 13:51:34.050,10.980027172225588,-0.0015192279821884642,-0.005758939821202046,0.011440023353449234,10.980027172225588,0.008679787940313141,0.06244647831488889,0.0170431037170765,10.980027172225588,41.037303058473206,-31.387047685387603,-17.39909277429118,10.980027172225588,9.741380083144737,1.0410061855663912,-0.4377659183980975,10.980027172225588,1.0645766030590795,-0.5056352143574899,-0.05715818670176004,-3.0966833074671114,0.0076533679198602005,0.8608269346520868,-0.10635301061034398
2025-05-02 13:51:34.100,11.029947505554368,-0.022363735558253127,-0.018697387201866315,0.18662787523733296,11.029947505554368,0.00809921078114731,0.07503574003393847,0.002487655678147447,11.029947505554368,41.06546556166012,-31.342945274939982,-17.509849587464984,11.029947505554368,9.73913961455663,1.0461495864705905,-0.4727289552987028,11.029947505554368,1.0643578775313767,-0.5054209645475604,-0.05829824890376918,-3.0930917352247485,0.006230289624689883,0.8608740734430814,-0.10688075539663285
2025-05-02 13:51:34.150,11.079867808493615,-0.029376756159539618,-0.009275031512009566,0.20068652334291787,11.079867808493615,0.023645593080938897,0.060753317536582224,-0.007982449183166731,11.079867808493615,41.01977874827006,-31.367131373265483,-17.670878867836308,11.079867808493615,9.737739299582145,1.044973710359276,-0.504152683765706,11.079867808493615,1.0635352950438375,-0.5049745225270892,-0.05906217630934247,-3.0898659254954017,0.004782744076002936,0.8610909241928923,-0.1067604292956326
2025-05-02 13:51:34.200,11.129788174488299,-0.01860906587620857,-0.04110837379290412,0.12092450562973976,11.129788174488299,0.02764817370652144,0.052194034687454066,-0.0055724775962453475,11.129788174488299,40.8948416329765,-31.423232697884877,-17.848684450518597,11.129788174488299,9.736667661947493,1.0418279931974939,-0.5312741233400281,11.129788174488299,1.0621606181415173,-0.5043076404631918,-0.05962974342181106,-3.087082124337995,0.0034615438100159992,0.8614503307083369,-0.10643790370980798
2025-05-02 13:51:34.250,11.179708513394186,-0.02726261869329953,-0.08582527453273416,-0.008927518311944709,11.179708513394186,0.016016494602156043,0.03282954858676784,0.0023945659138522755,11.179708513394186,40.736708755315426,-31.474382179100274,-17.95164848274289,11.179708513394186,9.735628417998207,1.0414427450389154,-0.5506883718321521,11.179708513394186,1.0610204628416946,-0.5037583341965882,-0.06012024825312748,-3.0850882863109264,0.002560880601508306,0.8617427200815506,-0.10639829649497755
2025-05-02 13:51:34.300,11.229628844788051,-0.00021270410935220652,-0.052577295366976945,-0.14390050170701935,11.229628844788051,-0.002434708639200005,0.025344642147091888,0.01314766104691305,11.229628844788051,40.62557040127851,-31.510089410101692,-17.99339213337936,11.229628844788051,9.734457367496598,1.0451930541740377,-0.5644958354852414,11.229628844788051,1.060723169569925,-0.5035790785430468,-0.06064532095246671,-3.083668004807068,0.0020401388248170753,0.8618150341537479,-0.10678277273970721
2025-05-02 13:51:34.350,11.279549226375865,0.0004183721556780436,-0.06181781004388741,-0.2040785255839617,11.279549226375865,-0.011896517736476915,0.009321261969088886,0.013784003600973156,11.279549226375865,40.53813767510982,-31.490218454641138,-17.96111776712062,11.279549226375865,9.73322259157381,1.0517851805916327,-0.5738658923734142,11.279549226375865,1.061151033653724,-0.5037169197717496,-0.06117809700200973,-3.082701251068842,0.0018086107389129616,0.8616986902528414,-0.10745883954523977
2025-05-02 13:51:34.400,11.329469514177257,-0.008067681213222743,-0.0814203701654009,-0.1859834554888921,11.329469514177257,-0.014004028071258634,-0.013523806729256311,0.013683545056270298,11.329469514177257,40.51070164678268,-31.44564457962293,-17.889996686459742,11.329469514177257,9.732593381418758,1.0577829340181693,-0.5730557010759463,11.329469514177257,1.0618901088313022,-0.5040210111881873,-0.06142154425592338,-3.082780498468689,0.002019820022614478,0.8615012303889711,-0.10807416766030913
2025-05-02 13:51:34.450,11.379389853538417,-0.015946170267286296,-0.09844900180496143,-0.1029025298096287,11.379389853538417,0.0037472798078731365,-0.02482333639810315,0.024854658525176643,11.379389853538417,40.5379359460934,-31.358781265934663,-17.791586524234273,11.379389853538417,9.73210763827834,1.0668347128785636,-0.5632397137325273,11.379389853538417,1.0622636949398756,-0.5041885376792774,-0.06156892753616615,-3.0837833776709855,0.002697498819409009,0.8613885388212922,-0.10900293858805339
2025-05-02 13:51:34.500,11.429310297271117,-0.03923568494713953,-0.09120259394394616,-0.00814578088264984,11.429310297271117,0.027913573014415372,-0.03960915131142723,0.03427630153165523,11.429310297271117,40.63916037677339,-31.206520091236964,-17.674300891369416,11.429310297271117,9.731280174376064,1.0824167151084,-0.5463478333223777,11.429310297271117,1.061518123987449,-0.5038791486114494,-0.061824865264137836,-3.085509368332216,0.0038225280015454824,0.8615447836733292,-0.11060179677719403
2025-05-02 13:51:34.550,11.47923054762623,-0.028458704717075966,0.005483602147587071,0.049764917720231415,11.47923054762623,0.045122100053125065,-0.04142178753011007,0.03748268301084225,11.47923054762623,40.80489292100325,-31.03708395079863,-17.579326795031182,11.47923054762623,9.730454277373957,1.100663981010199,-0.5240554978793683,11.47923054762623,1.0597819711234286,-0.5031529866891057,-0.062061238038204875,-3.0877887414222296,0.0052250083227183865,0.861944262394513,-0.11247400646428894
2025-05-02 13:51:34.600,11.529150797412251,-0.023227384771806147,0.014109916346807808,0.10795049412855917,11.529150797412251,0.04697639787019323,-0.03473514734891127,0.03254797708065121,11.529150797412251,40.969341066445054,-30.88009346203934,-17.532919553387735,11.529150797412251,9.729426202016583,1.1197573091358484,-0.5033993519372464,11.529150797412251,1.057503054380946,-0.5021857098626702,-0.06237832723803648,-3.0898995725154434,0.006559834464926005,0.8624786249172488,-0.1144332083238178
2025-05-02 13:51:34.650,11.579071077587805,-0.03066449140055758,0.043428961052402855,0.14259118790030348,11.579071077587805,0.03231483398315812,-0.02434773660234523,0.020028477669248517,11.579071077587805,41.099652362814695,-30.759551091405413,-17.520639678314893,11.579071077587805,9.728817184435902,1.1331722366540675,-0.4863361652097848,11.579071077587805,1.055528143589439,-0.5013534261349076,-0.06253673526787076,-3.0916448796478613,0.007598711054556207,0.8629465105892871,-0.11581002431017252
2025-05-02 13:51:34.700,11.628991199783318,-0.037913373805698626,0.015448759511317117,0.16378354213663346,11.628991199783318,0.012276904082950433,-0.0009400032019994004,0.01353951832312128,11.628991199783318,41.18085799495111,-30.699801457900897,-17.53599825061011,11.628991199783318,9.728129912045643,1.1422384795358727,-0.47936680021852657,11.628991199783318,1.0544493168792122,-0.5008866197793453,-0.06276251844956615,-3.0923556685031235,0.00810617915732315,0.8631980429694357,-0.1167407178614417
2025-05-02 13:51:34.750,11.678911409391418,-0.027814969806198814,0.021899938217245594,0.12160276083311534,11.678911409391418,0.0016625597989425348,0.009828991406990128,0.002096320251068036,11.678911409391418,41.232685578175186,-30.694086191315268,-17.563755154554148,11.678911409391418,9.72763055840159,1.146006038198089,-0.4802947550832026,11.678911409391418,1.0541473323934987,-0.5007432764907217,-0.06295545520913039,-3.0922580448458095,0.008151633362921176,0.8632660880246926,-0.11712761794909055
2025-05-02 13:51:34.800,11.728831679437128,-0.02052535399172139,0.013600027138511295,0.07050168243037191,11.728831679437128,0.001464407189286764,0.02653683330776881,0.003401200014485674,11.728831679437128,41.252774389307085,-30.712559583970794,-17.632732521181662,11.728831679437128,9.72706485375668,1.1473337481962564,-0.48808364599234766,11.728831679437128,1.0540724531632892,-0.5006820210033346,-0.06321582702757089,-3.0914565821897506,0.007837290848862337,0.8632843258261785,-0.11726401190328122
2025-05-02 13:51:34.850,11.778751853533866,-0.03517652922886938,-0.023981606105648413,0.02702249139545591,11.778751853533866,0.0070965680108125645,0.036144003812723036,-0.0020332733622919126,11.778751853533866,41.21720259517511,-30.757103112138587,-17.739252854282807,11.778751853533866,9.726210836482855,1.1479415354537377,-0.5030765685775637,11.778751853533866,1.0538525345323766,-0.5005367478361247,-0.06362977154865608,-3.089914910130086,0.007180550299825926,0.8633432664850234,-0.11732643419732103
2025-05-02 13:51:34.900,11.828672080783829,-0.019531772238448274,-0.05554956686473735,-0.031142421022959308,11.828672080783829,0.012761110757610026,0.043891802952040954,-0.009019253522348702,11.828672080783829,41.15278280476045,-30.833172009874968,-17.879290245073978,11.828672080783829,9.725524671005378,1.1455347706605188,-0.5214546658236772,11.828672080783829,1.0533332689591528,-0.5002588431038592,-0.06399736708217123,-3.088026854697464,0.006286776790903252,0.863484133984725,-0.11707933414400909
2025-05-02 13:51:34.950,11.878592460778183,-0.035161280156410187,-0.06471865633896977,-0.009986027486172503,11.878592460778183,0.025363878889165716,0.030403416621279555,-0.0033195693894682177,11.878592460778183,41.07127646421785,-30.90312259558483,-18.02716812098225,11.878592460778183,9.724952522449456,1.1421337879525577,-0.5409164851495044,11.878592460778183,1.0523739934804752,-0.49979025073623623,-0.06435164299943215,-3.086027873717495,0.005305638383323842,0.8637392840819899,-0.11673008072262928
2025-05-02 13:51:35.000,11.928512809131002,-0.012351867503855916,-0.04960139438341297,-0.12254128890170042,11.928512809131002,0.009954999643215159,-0.027541191191662238,0.007894727595949396,11.928512809131002,41.048335817421616,-30.93425624465061,-18.073622291404927,11.928512809131002,9.724765386880835,1.144236409758499,-0.5384069398461697,11.928512809131002,1.0513485490827557,-0.4993511884442618,-0.06438367455883885,-3.0862847010051144,0.005437636233735756,0.8639906431941635,-0.1169460234976894
2025-05-02 13:51:35.050,11.978433056299199,0.039317508474042466,-0.014026357682344403,-0.1646773063369186,11.978433056299199,-0.03275515444778643,-0.027009769961007856,0.011594096314822007,11.978433056299199,41.06889511855343,-30.954622623470353,-18.039823163083703,11.978433056299199,9.72488621559431,1.147869063152989,-0.526331262290401,11.978433056299199,1.0519448146809176,-0.49963781287531683,-0.06422984978777879,-3.087524129292251,0.006085342435350808,0.8638268775254557,-0.1173191207898892
2025-05-02 13:51:35.100,12.028353431285542,-0.06763682747454369,0.0018884978465933697,-0.019301412349069513,12.028353431285542,-0.05217626568576928,-0.02245811858021232,0.010542288523749211,12.028353431285542,41.121333003544414,-30.982430084157453,-17.9628627252468,12.028353431285542,9.724707494960864,1.1526236134248031,-0.5193178994065848,12.028353431285542,1.0543208651730924,-0.5006718280874328,-0.0642513121815138,-3.0882425453308535,0.006594809617170353,0.8632164206162348,-0.1178073770228726
2025-05-02 13:51:35.150,12.078273713054553,-0.0814293084452343,0.010059044489108517,0.038403011629773214,12.078273713054553,-0.0416564269581841,-0.0742339494517661,0.016183508487118747,12.078273713054553,41.180115137344856,-30.991107789508742,-17.84784092758645,12.078273713054553,9.725052581151786,1.1577240661062749,-0.5003185755150702,12.078273713054553,1.056683412269901,-0.5017387149069604,-0.06397855982605266,-3.0901929343496675,0.007644050463662351,0.8626044369616451,-0.11833113211792959
2025-05-02 13:51:35.200,12.128193966027492,0.03414191867151467,-0.012984647738758558,-0.03572627204908808,12.128193966027492,-0.05822556170098722,-0.07671151917540683,0.010757696899609325,12.128193966027492,41.28319985983265,-30.96621904706629,-17.663803249972727,12.128193966027492,9.725951247450348,1.164573577915664,-0.4642169955858333,12.128193966027492,1.0590563208764083,-0.5028610246665629,-0.0633356863639584,-3.0939000710291937,0.009494216938591812,0.8619791887898833,-0.11903442352272714
2025-05-02 13:51:35.250,12.178114365143351,0.019670153776391967,-0.0288881283899717,-0.06781122296960487,12.178114365143351,-0.09434149921643796,-0.06299806922850038,-0.0008987362915541484,12.178114365143351,41.37641226672914,-30.96162167706975,-17.462326867875007,12.178114365143351,9.72738095856205,1.165242589617272,-0.43323721220937106,12.178114365143351,1.062826619644131,-0.5045830518654318,-0.06254547763916007,-3.0970844361559036,0.011000463057914044,0.8610135979201318,-0.11910314890099004
2025-05-02 13:51:35.300,12.228034679350628,-0.013151517156828012,-0.06963023327292783,-0.04274940005914497,12.228034679350628,-0.1276814982503447,-0.018088909733979745,-0.004906596756911479,12.228034679350628,41.43810658843933,-30.994259138485287,-17.287598239569718,12.228034679350628,9.728499695308296,1.1618142787396895,-0.41862233830223805,12.228034679350628,1.0684623302224658,-0.5070624656859802,-0.06199454284909007,-3.098588940179277,0.011736758448496882,0.8595866735786076,-0.11875116219245549
2025-05-02 13:51:35.350,12.277954935738121,-0.022802158586025845,-0.04792277201667058,0.10108027920784778,12.277954935738121,-0.1090215201457066,0.034269747591201986,-0.015344244729844761,12.277954935738121,41.419102090333276,-31.062694828771566,-17.153773438069134,12.277954935738121,9.728763278709966,1.1542804522003665,-0.430162468931923,12.277954935738121,1.0747070980998454,-0.5097317786733601,-0.06193881045032363,-3.0974068602044373,0.011229903682104055,0.8580280976178144,-0.11797759538035556
2025-05-02 13:51:35.400,12.327875334398705,-0.07817616072457588,-0.054689253445395124,0.2809089737344602,12.327875334398705,-0.005994289685344656,0.08083763398264829,-0.02365870972713221,12.327875334398705,41.33453125142283,-31.131161065090588,-17.15826994355746,12.327875334398705,9.728417972608012,1.1435106959591608,-0.4628376702610236,12.327875334398705,1.0778942580358744,-0.5110268580854214,-0.06229185288643947,-3.0940537771274705,0.009605147908390213,0.8572615433361641,-0.11687168066567907
2025-05-02 13:51:35.450,12.37779571803525,-0.12704671945262375,-0.061479134893139636,0.30771732926553313,12.37779571803525,0.13754035600814957,0.0447295161787995,-0.0097302813292427,12.37779571803525,41.22140827312346,-31.104348392086507,-17.320371251673173,12.37779571803525,9.727856196113704,1.1361369769483476,-0.49401914553837684,12.37779571803525,1.0744806875527007,-0.5094685585952897,-0.06278885463787111,-3.090852356132406,0.007925925206826185,0.8581413391635655,-0.11611444316804877
2025-05-02 13:51:35.500,12.42771596417908,-0.018335016671416404,-0.06732537132135098,-0.07840443612578213,12.42771596417908,0.1833753459112146,-0.03451205864114506,0.016088316138911936,12.42771596417908,41.1803160340637,-30.952850014568842,-17.475683408795025,12.42771596417908,9.727513532486698,1.1434114804875632,-0.4810165579848729,12.42771596417908,1.0658624202245293,-0.5057733752964996,-0.06282400937349794,-3.092185193662157,0.008420319129784295,0.860277776292121,-0.11686151733291014
2025-05-02 13:51:35.550,12.477636287378017,0.09690760177660404,-0.00844332669223229,-0.2760503346590143,12.477636287378017,0.10999803104479167,0.009635732674185393,0.00409886254625078,12.477636287378017,41.143655715622366,-30.78857437525048,-17.588783573604175,12.477636287378017,9.727061303297145,1.1531783760992538,-0.46744758319705776,12.477636287378017,1.058235722283713,-0.5025072473680107,-0.06293944578226279,-3.093574512886564,0.009034064579315746,0.8621751641454682,-0.11786434500648284
2025-05-02 13:51:35.600,12.527556665778912,-0.019013137274661022,0.060024332532126294,-0.18481954211537063,12.527556665778912,0.016484126362663113,0.04149986060080074,-0.004378913545282026,12.527556665778912,41.12439039537133,-30.73618023212147,-17.65760700786035,12.527556665778912,9.726315832964502,1.1560405282033825,-0.4756058042281382,12.527556665778912,1.0552099507504948,-0.5011664238855956,-0.06330262664974882,-3.092734627853254,0.008655319453692847,0.8629271346152191,-0.11815830954630607
2025-05-02 13:51:35.650,12.577476894963791,-0.0599755238643199,0.06287222202964227,0.006796060092778688,12.577476894963791,-0.039612702649338624,0.03106521660014821,-0.009443154143026265,12.577476894963791,41.10039976604623,-30.764789031769087,-17.68552338571264,12.577476894963791,9.725449021065145,1.1525521715652949,-0.49777255781709767,12.577476894963791,1.0559685237943006,-0.5014252269543974,-0.06374429793396734,-3.090459577716294,0.007614432655307549,0.8627322253054465,-0.1178005458187126
2025-05-02 13:51:35.700,12.626978304947036,0.013705125877429355,0.04282125374089353,0.048143924817679054,12.626978304947036,-0.06013283408691991,-0.0319889071243349,-0.011838868944438984,12.626978304947036,41.13551472839508,-30.803815237903446,-17.589919446398373,12.626978304947036,9.725681627259203,1.1483098109156062,-0.5006576966788421,12.626978304947036,1.0584215189478385,-0.5024822291554324,-0.06363277928048547,-3.0901668925029764,0.007456600188776773,0.8621124667426513,-0.11736524068462234
2025-05-02 13:51:35.750,12.676584465656443,0.033559174191630195,0.020451579222237715,-0.11859536186904046,12.676584465656443,-0.11306854308667538,-0.0579383178846369,-0.0281508163360137,12.676584465656443,41.16921113198742,-30.888930463457516,-17.414100878166472,12.676584465656443,9.727712880747756,1.137341241799289,-0.4802943337233089,12.676584465656443,1.062445138094863,-0.5043059129267913,-0.06260387258594802,-3.0922650128963847,0.008199809746538996,0.8611067267048047,-0.11623928511276697
2025-05-02 13:51:35.800,12.727121447497845,0.0049745625965851425,-0.056410974025816005,-0.17484934923976114,12.727121447497845,-0.18498563526289497,-0.04005072266905466,-0.02780507873268348,12.727121447497845,41.22885105515426,-31.056388076035372,-17.19367643295565,12.727121447497845,9.730433539881666,1.1194229463441654,-0.4641771336767205,12.727121447497845,1.0700092388617057,-0.5076586721516219,-0.061356559249962715,-3.093930087297237,0.008682216353354437,0.8592277513230384,-0.11439998909069184
2025-05-02 13:51:35.850,12.778356713298127,-0.013194817148643687,-0.0713034384570243,0.04144434195329219,12.778356713298127,-0.19352401933895522,0.009977048331554668,-0.025936467629381975,12.778356713298127,41.296233430164506,-31.255130588202565,-16.933266913140613,12.778356713298127,9.732141004395581,1.1016072153486038,-0.4703644521193692,12.778356713298127,1.0801475796466509,-0.5120485351922248,-0.0606780832660987,-3.093302625704251,0.00826080265660456,0.856711067702687,-0.11257103091428328
2025-05-02 13:51:35.900,12.830057497678135,-0.14354920250144904,-0.039449848930568014,0.4540890880823928,12.830057497678135,-0.06505573028069017,0.02069876775110799,-0.019168001352668298,12.830057497678135,41.34163151098586,-31.409523817653778,-16.751259429860546,12.830057497678135,9.733100933629514,1.0855724435360021,-0.49321746057575666,12.830057497678135,1.087532987862607,-0.5151986797773581,-0.060512902855765036,-3.0909619549590137,0.00705845543602408,0.854900287612336,-0.11092479476629455
2025-05-02 13:51:35.950,12.881990874433216,-0.1405339075470444,-0.018240939724030254,0.4095532652297086,12.881990874433216,0.10708081404567833,-0.0704460955687338,0.00820910315645864,12.881990874433216,41.39850927321793,-31.38790941216181,-16.69803688268658,12.881990874433216,9.734091041724069,1.0818764406685093,-0.4848184110902306,12.881990874433216,1.0865499723954426,-0.5148096718987402,-0.060124170441073654,-3.0918264523770613,0.007298297248472324,0.8551546918451844,-0.11054523928758309
2025-05-02 13:51:36.000,12.933924286472024,0.011375850292737416,-0.0003246331364286357,0.01300071536327306,12.933924286472024,0.13997781303274912,-0.1058577328225674,0.023279409691808674,12.933924286472024,41.47579726283655,-31.246321543446864,-16.66339818425394,12.933924286472024,9.735302487775003,1.0925138705269053,-0.4333798959101742,12.933924286472024,1.0801304257748656,-0.512186069266217,-0.059280397365604184,-3.097106897019666,0.009646219354251423,0.8567382182615441,-0.11163723852638888
2025-05-02 13:51:36.050,12.985625064592016,0.05990650136680119,0.03747633588361357,-0.08720475695631735,12.985625064592016,0.05529323676622775,-0.03290226125703278,0.021998842292853902,12.985625064592016,41.4986363586569,-31.118899052404377,-16.623508323544986,12.985625064592016,9.735833825394094,1.1050634162657709,-0.39601627265700595,12.985625064592016,1.0754583483728042,-0.510270886616528,-0.05886857229794233,-3.100939875999629,0.011474944452502463,0.8578968527344648,-0.11292523695846393
2025-05-02 13:51:36.100,13.036860276556158,-0.03429803306848351,0.047715430509608366,0.1341516322655761,13.036860276556158,-0.008873087006223787,0.05975893744482456,0.01538029912379432,13.036860276556158,41.44099001584364,-31.097041075379774,-16.66233444628834,13.036860276556158,9.734465187918056,1.1143772195927415,-0.4040078947873834,13.036860276556158,1.0750421519754327,-0.510045465809041,-0.05949053782045444,-3.1001141852755265,0.011352578595649854,0.8579910318272482,-0.11388111354259818
2025-05-02 13:51:36.150,13.087397282071802,-0.14660330553092843,0.019722676678863352,0.4174440662132162,13.087397282071802,0.04529799088653371,0.05541288294679645,0.007388876101310384,13.087397282071802,41.29826821991902,-31.13098395643264,-16.835871122489205,13.087397282071802,9.732261028948638,1.1189064396452433,-0.44097916197430326,13.087397282071802,1.0747162159313033,-0.5097802686994589,-0.06066141943655813,-3.0963139648548275,0.009831404745190914,0.8580814143288062,-0.11434596685921726
2025-05-02 13:51:36.200,13.137003466683089,-0.0360271303878201,-0.00190044811731106,0.1737530278577061,13.137003466683089,0.11465247798111916,-0.04647387504525548,0.010701016593824372,13.137003466683089,41.15887865897947,-31.114524560319314,-17.00357843145628,13.137003466683089,9.731617699388023,1.1269395584640414,-0.43638173303435746,13.137003466683089,1.0703959534243366,-0.5079215163984364,-0.060914768575885465,-3.096782329730975,0.010113781038535495,0.8591663062741393,-0.11517030102872641
2025-05-02 13:51:36.250,13.186504818049821,0.1028886442128222,-0.02218183857972029,-0.24692030241297305,13.186504818049821,0.06028902534577828,-0.03174654194316672,-0.012745614739087172,13.186504818049821,41.02551668607282,-31.1150359894013,-17.130498036915924,13.186504818049821,9.73271982181488,1.12897839162779,-0.4069551300590067,13.186504818049821,1.0654030246333592,-0.5058654133625616,-0.06025402641430978,-3.0998037761737782,0.011313495820936876,0.8604242737132556,-0.11537947938952256
2025-05-02 13:51:36.300,13.236425111542136,0.040314780481595335,-0.09123269896723699,-0.3339395915615213,13.236425111542136,-0.05307813491715708,0.01930612573934188,-0.011768082643930755,13.236425111542136,40.91778403684542,-31.220389099832538,-17.24741622818104,13.236425111542136,9.73372428494045,1.122521613365661,-0.4028504181574433,13.236425111542136,1.0651930930950873,-0.5058048799054673,-0.05986053966167996,-3.100228829457042,0.01131825204319362,0.8604910347222168,-0.1147168426903569
2025-05-02 13:51:36.350,13.286345525568214,0.048212783301625615,-0.08467419962388568,-0.14160867176634964,13.286345525568214,-0.11656615155681752,0.0977512357309289,-0.020936216338644047,13.286345525568214,40.81888280481735,-31.394749411558568,-17.305611784252573,13.286345525568214,9.73306502790773,1.1140385662650527,-0.4363757425110171,13.286345525568214,1.0698820360561094,-0.507733107304433,-0.060347263957031806,-3.096788837017486,0.00976172269333153,0.8593249190297647,-0.11384618092681628
2025-05-02 13:51:36.400,13.33626583021474,-0.08601956102497808,-0.017832695114060708,0.23845496535482522,13.33626583021474,-0.039924473046284,0.10452450729628705,-0.03542042605987038,13.33626583021474,40.69949448947872,-31.5609762551902,-17.398561405635423,13.33626583021474,9.732199967939014,1.0972090096668463,-0.49616384192652724,13.33626583021474,1.0743571449844918,-0.5095145181786257,-0.06114303117686041,-3.0906563353037297,0.0068196873758911486,0.8582457614783676,-0.11211918591825241
2025-05-02 13:51:36.450,13.386186064293812,-0.09272951751788064,-0.017492538765769144,0.087148983246938,13.386186064293812,0.0707626804075529,-0.020847753756668787,-0.016638516589113493,13.386186064293812,40.62598671368517,-31.62026311701002,-17.544198743557917,13.386186064293812,9.732607818973182,1.0843632692291647,-0.5167752822651914,13.386186064293812,1.0731246838668045,-0.5089521518117786,-0.061125011031820636,-3.088546417404299,0.005544375705129429,0.8585851658461476,-0.11080109103436617
2025-05-02 13:51:36.500,13.436106416857916,0.06380758860462903,-0.03785871872678879,-0.2427777860387327,13.436106416857916,0.06138206616842957,-0.05682839255840779,-0.014032603592757324,13.436106416857916,40.63153574127705,-31.58295340726989,-17.557875078819336,13.436106416857916,9.734097275579625,1.0800063019243864,-0.4892705599445663,13.436106416857916,1.0692931080624049,-0.5074012056353594,-0.06023120457462065,-3.091373078964847,0.006536018857157458,0.8595538897933885,-0.11035376337627592
2025-05-02 13:51:36.550,13.486026777503128,0.04895590600905591,-0.028128755360873253,-0.30330726935381935,13.486026777503128,-0.03231297258400559,-0.039099749693503855,-0.011143686315088202,13.486026777503128,40.69210685961184,-31.570577938906872,-17.48005270079859,13.486026777503128,9.735844540947479,1.0751145017912456,-0.46313136353145373,13.486026777503128,1.068326773338637,-0.5070806196578413,-0.05932325407160222,-3.0940591316583976,0.007532039366976652,0.8598080653580508,-0.10985163998096525
2025-05-02 13:51:36.600,13.535947084881297,0.06629142185961606,0.005743292551721273,-0.21313221369518234,13.535947084881297,-0.12822761705844304,0.01202995443330221,-0.025289756490790388,13.535947084881297,40.80976976514707,-31.653105622405015,-17.33676182317849,13.535947084881297,9.736815092810803,1.0658773156531167,-0.46264271792136485,13.535947084881297,1.0725006145090727,-0.5088864533166452,-0.05889171579797531,-3.0941134999790294,0.007434463616331578,0.8587463068723967,-0.10890417596651518
2025-05-02 13:51:36.650,13.585867533849648,0.02290212082180677,-0.021718620003947475,-0.08708409223938084,13.585867533849648,-0.15442854979255716,0.01109271926939972,-0.03911844467948304,13.585867533849648,40.93133502239957,-31.800431770378136,-17.150082077346525,13.585867533849648,9.737870571208376,1.0478488459344697,-0.476985633013301,13.585867533849648,1.079773811781008,-0.511990696838335,-0.058475701202714246,-3.0926515100430914,0.0065436310286516456,0.8568865668601753,-0.10705567098508077
2025-05-02 13:51:36.700,13.635788008540972,-0.049863320788153476,-0.01277383208474222,0.04348511650635205,13.635788008540972,-0.12100840328317733,0.018487122311041944,-0.042096724504461724,13.635788008540972,41.04555911617689,-31.97137966200474,-16.954638422897133,13.635788008540972,9.739505543244862,1.025723169621308,-0.49026699824200787,13.635788008540972,1.0868716381841659,-0.5150435264404352,-0.05784638787224966,-3.0913026265106462,0.005583903790854623,0.8550882012120443,-0.1047874606095774
2025-05-02 13:51:36.750,13.68570837351129,-0.10909394439898887,-0.016429509782841887,0.14369104491311283,13.68570837351129,-0.03530717907443066,-0.020794284538233503,-0.024381258353886243,13.68570837351129,41.16087068144268,-32.074612291598456,-16.831375235888824,13.68570837351129,9.741226523385471,1.0080740241567034,-0.49700432177046855,13.68570837351129,1.0907355136979144,-0.5167214264848956,-0.05724589529703148,-3.090622705125214,0.004938188491251218,0.8541199346701606,-0.10297800450335366
2025-05-02 13:51:36.800,13.735628870283396,-0.04941518624937633,-0.0322464164064657,0.09526281890126759,13.735628870283396,0.0290900948060143,-0.05322892494480158,-0.005017353096295205,13.735628870283396,41.28669188172677,-32.03705337631126,-16.742468994425213,13.735628870283396,9.74232532725402,1.0028530053197218,-0.47729075021224376,13.735628870283396,1.0906813952451444,-0.5167625409379143,-0.056524703370259596,-3.0926493669857233,0.00568051741737339,0.8541176493832369,-0.1024428343442027
2025-05-02 13:51:36.850,13.785549328926317,0.012375327678217245,-0.031433047111853005,0.0710033239871168,13.785549328926317,0.04471809459472466,-0.036857151568352856,-0.004147457087842304,13.785549328926317,41.384925895637664,-31.934194455446974,-16.680522294478024,13.785549328926317,9.743130037585786,1.0036885949278413,-0.45209241343220147,13.785549328926317,1.0886120617024884,-0.5159516523592487,-0.0559046269539945,-3.095233541292907,0.0067564999294065405,0.8546484218889934,-0.10252836272711718
2025-05-02 13:51:36.900,13.835469627312825,-0.010199540729147553,0.03381716318062055,0.07827138969557214,13.835469627312825,0.020501296131899955,-0.005532329094363962,-0.010467634688724161,13.835469627312825,41.4610701412033,-31.8262352007531,-16.67193717334102,13.835469627312825,9.743801601733708,1.0020976452241492,-0.44239123590440116,13.835469627312825,1.0868743444752922,-0.5152415445371015,-0.055568671616705555,-3.096228633767914,0.0070874953472487975,0.8551051962088931,-0.10236492724609776
2025-05-02 13:51:36.950,13.885389988527132,-0.005769359673272709,0.03338175118996675,0.015522404142928888,13.885389988527132,-0.026207144483750278,-0.032308949892233416,0.000991305919138352,13.885389988527132,41.52321704784483,-31.77015427809503,-16.640829944388333,13.885389988527132,9.744160589462942,1.0011420941477338,-0.4339115227585989,13.885389988527132,1.0868711033742793,-0.5152507203342093,-0.05532283771624286,-3.0970992666465778,0.0074380476190425895,0.8550756640541936,-0.10226707221452484
2025-05-02 13:51:37.000,13.935310341091236,0.0006943098158062123,0.04030622983923889,0.08953718160159527,13.935310341091236,-0.0649912110853308,0.012780209976011852,-0.008318103487345026,13.935310341091236,41.57515531242043,-31.76588645526031,-16.507402454723053,13.935310341091236,9.744205715642844,1.0007849900368828,-0.42865324959269974,13.935310341091236,1.0894105303481183,-0.5163505072392137,-0.05516992390392556,-3.0976394012634145,0.007732935776378548,0.8544107437925902,-0.10223069008293877
2025-05-02 13:51:37.050,13.985230601576193,-0.10915965964713042,0.10198289491235366,0.2926010104305953,13.985230601576193,-0.020204170258381535,0.020076483235388437,-0.0017676023899909647,13.985230601576193,41.561226911922816,-31.81069001595743,-16.48069082406855,13.985230601576193,9.744135419323612,0.9984664637961169,-0.44404153816855674,13.985230601576193,1.0918189446969098,-0.5173474258859923,-0.05544323372516044,-3.096060795840697,0.0070559214540896345,0.8538188911502796,-0.10199273457710782
2025-05-02 13:51:37.100,14.035150905425988,0.002349894900918022,0.06944795730893201,0.12175747226400546,14.035150905425988,0.02014937456740647,-0.00398018964075663,0.005899703919579291,14.035150905425988,41.567822130465665,-31.82869871624152,-16.51152657462171,14.035150905425988,9.743450419074854,1.0023620153800208,-0.4466567968614643,14.035150905425988,1.0917268668300517,-0.5172753510491208,-0.05570813735716564,-3.0957909066741687,0.007046712379074476,0.8538058604599713,-0.10239226721256628
2025-05-02 13:51:37.150,14.085071291111268,0.026881050706339102,-0.00825975326676921,0.024706465280164413,14.085071291111268,0.03344653692174635,0.0055326010723596225,-0.004611960549172368,14.085071291111268,41.4913893692978,-31.82837762010133,-16.59093711870816,14.085071291111268,9.743068459771607,1.0054469456034545,-0.44405481596138074,14.085071291111268,1.0903618092037244,-0.5166850987849532,-0.05579891242050796,-3.096057322114251,0.007206198277149849,0.8541318886122666,-0.10270884798501176
2025-05-02 13:51:37.200,14.134991602700719,-0.07053161831360197,-0.019163283814408776,-0.010275719293807977,14.134991602700719,0.04114178984940484,0.03492916438062108,-0.00024740246693344354,14.134991602700719,41.38089248194849,-31.85936576647644,-16.734325488964203,14.134991602700719,9.742887442471268,1.006598202511164,-0.45268135788910346,14.134991602700719,1.088526590807246,-0.5158828409823789,-0.05606494156549362,-3.095172348085753,0.006798273370721531,0.854624710923906,-0.1028268972164164
2025-05-02 13:51:37.250,14.184911869787149,-0.027478013783379322,-0.021687534850536955,-0.12296007412292033,14.184911869787149,0.040262036595172385,0.0080602202125953,0.011820485696982462,14.184911869787149,41.32346389165858,-31.86797961966427,-16.874573315885005,14.184911869787149,9.741784504438808,1.0128662278571274,-0.46254431109799177,14.184911869787149,1.0863935296285692,-0.5149210563947015,-0.05661777862500732,-3.0941566339827697,0.006475961944079839,0.8551583471712538,-0.10346944391870165
2025-05-02 13:51:37.300,14.234832234871282,0.01768868969890076,-0.005391988117473258,-0.06232216751551042,14.234832234871282,0.028015111713281637,-0.000891572688565119,0.005927534570856717,14.234832234871282,41.318707908505985,-31.810108787696755,-16.88967151419548,14.234832234871282,9.740713748900825,1.0195808693134134,-0.461851637151511,14.234832234871282,1.0848299595903106,-0.5142373367401278,-0.05691441575428258,-3.0942237046921304,0.00664850194133853,0.8555439881459306,-0.1041578176870319
2025-05-02 13:51:37.350,14.284752499681343,-0.014982578165763163,0.0683836663582327,0.06999102651397786,14.284752499681343,0.04856745571175936,-0.011088131895258441,0.002676344222751708,14.284752499681343,41.32525052157325,-31.760173834954188,-16.908388464156328,14.284752499681343,9.74062104427413,1.024101611033731,-0.4581881922270771,14.284752499681343,1.0829347094150028,-0.5134410126443983,-0.05699640058506926,-3.0945964601400555,0.006870069849481192,0.8560559403812792,-0.10462094332203538
2025-05-02 13:51:37.400,14.334672802620593,0.06687270285474131,0.09894895070076552,-0.11444566209206307,14.334672802620593,0.01381826001308456,-0.025530698193814687,0.0007088323027147321,14.334672802620593,41.30629428249983,-31.731205169748947,-16.918141547783314,14.334672802620593,9.74082456798351,1.027546428727727,-0.44722181810797307,14.334672802620593,1.0810946169803362,-0.5126759700759552,-0.056861889988254116,-3.095719608161326,0.007392836325837679,0.85652237044969,-0.10497388420803679
2025-05-02 13:51:37.450,14.38459319285861,0.08607982046297816,0.04576235823174105,-0.15589575969546943,14.38459319285861,-0.054324770623292835,-0.003799333747276622,-0.016773848606833668,14.38459319285861,41.305379587453665,-31.803474821077437,-16.877779062978078,14.38459319285861,9.741477874610647,1.02483965565615,-0.4392924262325411,14.38459319285861,1.0820852806463004,-0.5131270801360153,-0.05653085885343202,-3.0965338542153704,0.0077006357867722575,0.8562700557061603,-0.1046962203399863
2025-05-02 13:51:37.500,14.434513545081256,-0.01306436153677105,0.013494059280944394,-0.047208859342997685,14.434513545081256,-0.09293691432559426,0.04260819877708438,-0.02888190370337449,14.434513545081256,41.29328101098131,-31.930156773565052,-16.81344588130786,14.434513545081256,9.742426763465978,1.0122809897918736,-0.45405888729936067,14.434513545081256,1.0859600707241956,-0.5147862856007493,-0.05632993722324365,-3.095024418957206,0.0068226584240079595,0.8553295883879269,-0.10340852958693054
2025-05-02 13:51:37.550,14.484433811598592,-0.052542182973560884,0.004183213131737921,0.07624647491431297,14.484433811598592,-0.06863948913130462,0.03158786626563071,-0.015309819101088987,14.484433811598592,41.28267230409575,-32.0695731209709,-16.79053222371708,14.484433811598592,9.742683719016181,1.0001625918440686,-0.47937950582028405,14.484433811598592,1.0901508251079766,-0.5165307752932697,-0.0564500500699568,-3.09243136242195,0.0055093383306353055,0.8542772425116729,-0.10216607715086667
2025-05-02 13:51:37.600,14.53435414435828,-0.02075423859349498,-0.03882060076115411,0.09840146196863112,14.53435414435828,-0.03116282808544482,0.009422109100646359,-0.004293821910114032,14.53435414435828,41.343811618476025,-32.142902593012536,-16.758724968472322,14.53435414435828,9.742212330588854,0.9951915779243848,-0.48988210390481646,14.53435414435828,1.092712997754426,-0.517596012731289,-0.056532913133131996,-3.091355741463704,0.005001035116143252,0.8535999707365762,-0.10165669723321065
2025-05-02 13:51:37.650,14.584274400973412,-0.03423345588945711,0.006555892736791585,0.23456552515846907,14.584274400973412,0.050105726762321,0.0012880499902374555,-0.0006034331791329022,14.584274400973412,41.34482029201278,-32.148697347574384,-16.794432789907074,14.584274400973412,9.742034617404093,0.9952839398427626,-0.49377618179356264,14.584274400973412,1.0923424716590273,-0.5174307781993349,-0.056631287673873924,-3.0909557549350617,0.004816829144460896,0.8537054004807549,-0.10166617784380916
2025-05-02 13:51:37.700,14.634194560615201,-0.004285721307791509,0.004073974778821706,-0.04474499001417762,14.634194560615201,0.07297359467386381,-0.007534792602479059,0.011062351977865098,14.634194560615201,41.34861795918935,-32.0978747672413,-16.876645260257362,14.634194560615201,9.741753783112806,1.001685389020467,-0.48592634906139315,14.634194560615201,1.0888769416253254,-0.5159465250528509,-0.05672282651705881,-3.091758712104902,0.005229741857042005,0.8545664055366269,-0.10232260564659586
2025-05-02 13:51:37.750,14.684114832368188,0.069270874631173,-0.007930746809775582,-0.15215074199925455,14.684114832368188,0.02633241186296199,0.018002099295457232,0.002883251749916915,14.684114832368188,41.36941743864056,-32.050230297453275,-16.940928795732304,14.684114832368188,9.740965244008311,1.0089354586931178,-0.4849609790391223,14.684114832368188,1.086301380027664,-0.5148193271546995,-0.05703848535228894,-3.091854714099207,0.005390402188824744,0.8551938924913092,-0.10306610346966294
2025-05-02 13:51:37.800,14.734035049829764,-0.03532898262036158,0.011815895062186605,-0.011259790099298459,14.734035049829764,-0.012525571551008896,0.03962658290818583,0.001274513765097106,14.734035049829764,41.371035531851064,-32.0176905918789,-16.955141372502865,14.734035049829764,9.740347930304361,1.0108320054333826,-0.49946543243528646,14.734035049829764,1.0861474395821804,-0.5147140292523864,-0.057493761184298664,-3.0903668716766637,0.004789614213384666,0.8552439805106515,-0.10326063220092348
2025-05-02 13:51:37.850,14.783955206057,-0.08034106357630469,0.06229097656227523,0.13267803750310053,14.783955206057,0.0010714388597921935,0.027617076486522802,0.01676933030855121,14.783955206057,41.36561033875802,-32.01049165881327,-16.987086661100985,14.783955206057,9.738949753671726,1.016533172521218,-0.517754403275622,14.783955206057,1.0866349869541199,-0.5148518402727127,-0.058228688968777836,-3.0884861251502134,0.004156145472780699,0.8551133764440422,-0.103845021131786
2025-05-02 13:51:37.900,14.833875543369427,0.02205120846285697,0.060626201607663396,0.12289407013935902,14.833875543369427,0.02554058118404214,0.0036077130716163698,0.02180966341874559,14.833875543369427,41.305169528347726,-31.97329737523227,-17.015307076549796,14.833875543369427,9.73704917516107,1.0278484350763069,-0.5237043581314377,14.833875543369427,1.0861031982075773,-0.5145780891509912,-0.058900034495304746,-3.087866300850483,0.004194273967352167,0.8552382567228985,-0.10500488801000378
2025-05-02 13:51:37.950,14.883795871462558,0.017075876949753297,0.09250619520733389,0.1832891835726635,14.883795871462558,0.08418992558550666,0.03339790074471699,0.004606738042505358,14.883795871462558,41.20071128720736,-31.93773994356888,-17.121686715790762,14.883795871462558,9.735774658562395,1.0373567161311452,-0.5293240021880569,14.883795871462558,1.083530027919215,-0.5134512798957347,-0.05943731121727119,-3.087280852822279,0.004116905231010242,0.8559258699689968,-0.1059793148052763
2025-05-02 13:51:38.000,14.933716170987251,-0.02762587629362427,0.04403975580444591,-0.05837168313667278,14.933716170987251,0.10869491975797939,0.007249963214069592,0.011149751358624308,14.933716170987251,41.0533880416053,-31.86171635981214,-17.326682820353515,14.933716170987251,9.734785097883716,1.0442366391565565,-0.5373449513615977,14.933716170987251,1.0783579444002223,-0.5111821369360176,-0.05995051679730189,-3.086452712358956,0.003783446333896638,0.8572266087373583,-0.10668479814563801
2025-05-02 13:51:38.050,14.983636509096408,0.07171639431569558,0.0029389953410288803,-0.21388624802289538,14.983636509096408,0.06332189018484265,0.011197482382049418,-0.0011585607755134615,14.983636509096408,40.97084544077352,-31.791271560064363,-17.486604533162193,14.983636509096408,9.733981723095905,1.0529320319891977,-0.5333559355024673,14.983636509096408,1.0738973045645996,-0.5092356554146783,-0.06025527649482222,-3.086857017008759,0.004057405199743134,0.8583106102007177,-0.10757647607318456
2025-05-02 13:51:38.100,15.033556879074737,0.014819760615282422,0.021730832696380663,-0.09858061820032432,15.033556879074737,0.028453655736325623,0.0282554459009138,-0.019317713380185595,15.033556879074737,40.87284478318729,-31.767992466924433,-17.63158552263171,15.033556879074737,9.734017922577408,1.0507755816782494,-0.5423366900226386,15.033556879074737,1.0717300898227076,-0.5082901471335352,-0.06038218799629464,-3.0859369049325855,0.003531666636077637,0.8588805525554651,-0.1073554513407694
2025-05-02 13:51:38.150,15.083477139901152,0.012528577054996085,0.015703024353295715,-0.11756010816729186,15.083477139901152,0.013081811994340341,0.022008521136738797,-0.020965652998769162,15.083477139901152,40.772306165717524,-31.793130699460125,-17.731661155007146,15.083477139901152,9.734214025720085,1.0440372359518058,-0.5548381007500663,15.083477139901152,1.0706121085992701,-0.5077892896853624,-0.06041517917868501,-3.0846583661845646,0.0027657472872989006,0.859173786287464,-0.10666482719841575
2025-05-02 13:51:38.200,15.133397455018978,0.07348750899416048,-0.054255653234158034,-0.3124524947170455,15.133397455018978,-0.055485848029142075,0.001860320239842387,-0.022816006253453976,15.133397455018978,40.740314823319686,-31.815857460004267,-17.737877592784862,15.133397455018978,9.734283965331086,1.0351992783665223,-0.5589420353243771,15.133397455018978,1.071413862891658,-0.5081183578307945,-0.06018984198015603,-3.0842429616483718,0.0023902473720396676,0.8589217123129678,-0.10575928684066191
2025-05-02 13:51:38.250,15.183317842866806,0.0335150359763494,-0.03518447344679683,-0.14429460974932795,15.183317842866806,-0.11480937969213112,0.021513616799926222,-0.039609739387957234,15.183317842866806,40.708505867911484,-31.90644162762701,-17.640931641194136,15.183317842866806,9.735203352862513,1.0191311116704378,-0.5685301765631736,15.183317842866806,1.075868182009222,-0.5100435688832536,-0.05974436280791748,-3.0832696782680604,0.0016772708003336897,0.8577991760945962,-0.10411233145291096
2025-05-02 13:51:38.300,15.23323808423026,-0.082407723967379,-0.002020743778163007,0.010972290367970048,15.23323808423026,-0.11815214889050264,0.007382071982105366,-0.02839350207971464,15.23323808423026,40.71995252773767,-32.0177405155067,-17.506146282916347,15.23323808423026,9.73652047007052,0.99947940139907,-0.5839186341769023,15.23323808423026,1.081701412672103,-0.5125548455152191,-0.05927614201668766,-3.0817028147624876,0.0006566591510389726,0.8563454200738736,-0.10209762593819946
2025-05-02 13:51:38.350,15.283158420063048,-0.03552624717669481,-0.0025167869027877625,0.07107244078818171,15.283158420063048,-0.11257368398674018,-0.022415035930060608,-0.00830727046635656,15.283158420063048,40.82207365591775,-32.10879246282696,-17.302290881319248,15.283158420063048,9.737207352507014,0.9896252524404402,-0.5844371945766793,15.283158420063048,1.0875888791441868,-0.5150993119841475,-0.05886580469906831,-3.0816542857641824,0.0005657738149997224,0.85484924124368,-0.10108719881624666
2025-05-02 13:51:38.400,15.33307881132543,0.006468064439678827,0.06377992763903678,0.24903284622251914,15.33307881132543,-0.06212673693600106,-0.01930793914032155,-0.0069158915940472545,15.33307881132543,40.88269394383296,-32.15576244434285,-17.085465750883273,15.33307881132543,9.738097313108229,0.9846380469578446,-0.5790008523523321,15.33307881132543,1.0922570050016407,-0.5171538887802157,-0.058470029928629735,-3.082213766507153,0.0008130771805071762,0.8537138178129965,-0.10057545450626308
2025-05-02 13:51:38.450,15.382999082395507,-0.03448513493739788,0.14120897230890872,0.27575576732227763,15.382999082395507,0.021212482082685873,-0.0013585355402011986,0.00036223097574097105,15.382999082395507,40.926884250596515,-32.15678010953898,-16.98209113274425,15.382999082395507,9.738767894605367,0.9837019815794448,-0.575921742158172,15.382999082395507,1.0933073501426724,-0.51763512174633,-0.05830440775859753,-3.082529884554915,0.000943665441533203,0.8534916362613619,-0.10047904936679843
2025-05-02 13:51:38.500,15.432919441902536,-0.027108580688852257,0.05799741738138964,0.04011212803683663,15.432919441902536,0.046767556240526115,-0.02246404666896474,0.014275991370997035,15.432919441902536,40.932982253139215,-32.08409052495364,-16.978321799253848,15.432919441902536,9.73849691161983,0.9891511062688153,-0.5690302052686972,15.432919441902536,1.091262466490316,-0.5167494837454467,-0.05838013923027049,-3.0832339913595326,0.0013327033672424164,0.8539778618384365,-0.10103770867337153
2025-05-02 13:51:38.550,15.48283983088855,0.02434843235517452,0.04572305819543015,0.026340298078037585,15.48283983088855,0.02946801531847164,0.008890797592056982,0.0011926976394012704,15.48283983088855,40.967500522142345,-32.019868565272695,-17.02828756123438,15.48283983088855,9.738115373063343,0.9968804721051947,-0.5612811337892064,15.48283983088855,1.0894499791522696,-0.5159788673793986,-0.058516761339402736,-3.08402527100125,0.0018220732379543947,0.8544326706626867,-0.101830045644573
2025-05-02 13:51:38.600,15.5327600771462,-0.036570766538223214,0.03943192212790658,0.005511562885026125,15.5327600771462,0.02970345668138676,-0.008815858061566479,3.5833573568029396e-05,15.5327600771462,40.911151635230105,-32.00266908587839,-17.12065642385776,15.5327600771462,9.738251099318632,0.9981834875863601,-0.5638415543313571,15.5327600771462,1.0878881950124495,-0.515315710216531,-0.05861762592187703,-3.0837627830795773,0.0016883134919800547,0.8548634854845353,-0.10196351225767668
2025-05-02 13:51:38.650,15.582680324883487,0.03239427970016066,-0.0397168457901972,-0.19791179876712015,15.582680324883487,-0.015834165843841966,-0.021624997614216438,0.0015551585019164577,15.582680324883487,40.883184302270095,-32.012469254785,-17.13401489257817,15.582680324883487,9.738166207664943,1.0006612229768292,-0.5541192929440087,15.582680324883487,1.0873792291016977,-0.5151150867007321,-0.05848612680251969,-3.0847582402341556,0.002174201381270973,0.8549781830435793,-0.10221745692336073
2025-05-02 13:51:38.700,15.632600632603111,0.045471901299939665,-0.05490229811709309,-0.14854886945594292,15.632600632603111,-0.06562575026174333,-0.015360142721301777,-0.01006509499995599,15.632600632603111,40.87957789281041,-32.04385144071431,-17.065435193468684,15.632600632603111,9.738439935587074,0.9989062901192446,-0.5468111393039297,15.632600632603111,1.0895117213274017,-0.5160549354946141,-0.058214646292221874,-3.0855073966240973,0.0025143715924446585,0.8544361288905492,-0.10203744598691271
2025-05-02 13:51:38.750,15.682520814780961,-0.008981589499131238,0.013686484636416252,-0.014254744657061691,15.682520814780961,-0.07728525039789855,0.0004238312091408914,-0.019933133017996863,15.682520814780961,40.84385201692035,-32.15231429947014,-16.93210151867993,15.682520814780961,9.739406622248307,0.9904449708826699,-0.5480885999888047,15.682520814780961,1.0932470554901146,-0.5176812105727095,-0.05784750726433082,-3.085380851871868,0.002333497049782982,0.853511098335047,-0.10117005643966336
2025-05-02 13:51:38.800,15.732441018129045,-0.016677316679830877,0.021956636091158156,0.00918401067283077,15.732441018129045,-0.061325389928768556,-0.015522408080211363,-0.011736143393103379,15.732441018129045,40.878049282260804,-32.24269817503468,-16.773547498440728,15.732441018129045,9.740233428597522,0.9818006721098597,-0.5484060701262614,15.732441018129045,1.0965979388554883,-0.5191165125969711,-0.05748706938921834,-3.0853532056848962,0.002191152131484003,0.8526294502782736,-0.10028413626144343
2025-05-02 13:51:38.850,15.782361324255211,0.003967726412061255,0.01769335780107599,0.05714305053554089,15.782361324255211,-0.05362253889858322,-0.010294203910464346,-0.010500051715630518,15.782361324255211,40.93153779000957,-32.29390162043369,-16.604393770089,15.782361324255211,9.740834628300117,0.9768971340209741,-0.5426161149468326,15.782361324255211,1.0996137037528217,-0.5204229562867428,-0.05713483671454494,-3.0859508171110597,0.002407029144956612,0.8518315314610926,-0.09978178203113612
2025-05-02 13:51:38.900,15.832281553212452,-0.055115060848949494,0.08176820183792541,0.25789063313383837,15.832281553212452,0.014058018760160837,0.002388658447599277,-0.007796470306939642,15.832281553212452,40.93083764989903,-32.30891091940294,-16.4946036527763,15.832281553212452,9.741569081825787,0.9731660393398229,-0.5443461081016013,15.832281553212452,1.1007458678086208,-0.5209174115094645,-0.05699423658144155,-3.085776714487509,0.0022543287475925355,0.8515597231240917,-0.09939932628242057
2025-05-02 13:51:38.950,15.882201865484815,0.00010318214750510286,0.06401209241006513,0.09729120089197354,15.882201865484815,0.04716020890431257,-0.008003771184381355,0.006935844217407549,15.882201865484815,40.9496562610974,-32.24769288532114,-16.48073141458155,15.882201865484815,9.741515077998276,0.976387826882028,-0.5395306537826825,15.882201865484815,1.0989782678394153,-0.5201562913606891,-0.05702727605470446,-3.0862705598871196,0.002501614878110453,0.8519851443892653,-0.0997297907853536
2025-05-02 13:51:39.000,15.932122320144089,0.011820418839230929,-0.0036078282457020325,0.062030879496452335,15.932122320144089,0.04219804400261201,0.010685946660915237,0.004247404641899482,15.932122320144089,40.93993566553086,-32.15116579993907,-16.528480760978972,15.932122320144089,9.740833405572976,0.9823644065140562,-0.5369386500683401,15.932122320144089,1.0967634051211057,-0.5191934976952397,-0.057243870796628744,-3.086533353574986,0.0027151516812913006,0.8525265260011381,-0.10034256245296302
2025-05-02 13:51:39.050,15.982042612612037,-0.04285019963275177,0.007660136576164132,0.10092702366565742,15.982042612612037,0.05046026591723908,0.02674877876915165,0.003698810453511485,15.982042612612037,40.94997812551228,-32.09355982355868,-16.668559026829328,15.982042612612037,9.740139460095522,0.9877622327993756,-0.5451521777873916,15.982042612612037,1.0945616668002454,-0.5182274412716323,-0.057681268157734146,-3.085688210077628,0.0024254228550993325,0.8531107326141122,-0.10089577347152656
2025-05-02 13:51:39.100,16.031962899275243,0.022495249713380107,0.03826049301552819,-0.05664915927579627,16.031962899275243,0.05084462844721104,-0.011935371133913525,0.006802020259614008,16.031962899275243,40.92629653468287,-32.0497910292833,-16.80695908197438,16.031962899275243,9.739513441784242,0.9936595890390817,-0.5472885081463855,16.031962899275243,1.0918375727584697,-0.5170405185167154,-0.0580054162045286,-3.0854663676532956,0.002410100268383679,0.8538005028935056,-0.10150028615834629
2025-05-02 13:51:39.150,16.081883337772293,0.0917090826382423,0.02734820192903542,-0.2253032665397669,16.081883337772293,-0.009823273580807932,-0.009217794116213058,-0.005089526836128625,16.081883337772293,40.99666504048533,-32.0491394754335,-16.85395893372582,16.081883337772293,9.739284360979317,0.9965610437342498,-0.5376614848589303,16.081883337772293,1.0907204509858588,-0.5165769337283929,-0.057905534042947106,-3.0864521825214166,0.0028886729869877907,0.8540641028752403,-0.10179777521014585
2025-05-02 13:51:39.200,16.131803648792655,0.004098701826033928,0.06236841447185311,-0.06602211843777844,16.131803648792655,-0.042869525270792866,0.030524521311614906,-0.015880417313300855,16.131803648792655,41.04124410135773,-32.107309863395145,-16.835947679639737,16.131803648792655,9.739473180624993,0.991610638298743,-0.5455238089873851,16.131803648792655,1.0923403761876094,-0.5172759500683424,-0.05787024672225566,-3.0856473373380386,0.0024541645037203697,0.8536883637109586,-0.10129017393048749
2025-05-02 13:51:39.250,16.181723899375406,-0.035985040451692644,0.051521835670016815,-0.056223032888836386,16.181723899375406,-0.03487663479534909,0.025662419650625604,-0.008259113966910687,16.181723899375406,41.06214410386173,-32.18757095159081,-16.818975460168126,16.181723899375406,9.739274007993009,0.9855788026815895,-0.564187235416366,16.181723899375406,1.094223076044191,-0.5180413802385517,-0.0580881404719184,-3.0837352841357037,0.001525613625247177,0.8532179794076871,-0.10067190212936383
2025-05-02 13:51:39.300,16.231644275955205,0.006998351145638156,0.00755666669809945,-0.0368303409917449,16.231644275955205,-0.02302708189526365,0.006107675243551174,-0.00261459749480731,16.231644275955205,41.14373467718815,-32.208591160629815,-16.786169938663267,16.231644275955205,9.738740922939597,0.9838921323408779,-0.5720334013977583,16.231644275955205,1.0957041897402537,-0.5186414673723122,-0.05824426336257331,-3.0829306629998623,0.0011872465551717752,0.852810341465482,-0.10049922697986784
2025-05-02 13:51:39.350,16.28156454861874,-0.057047332163714444,-0.00657745307875925,0.12666357765069425,16.28156454861874,0.018601416082649057,0.00403907816544489,-0.004136613240500257,16.28156454861874,41.15085899513095,-32.166447395378135,-16.785869671303672,16.28156454861874,9.738727328786222,0.9834570609466329,-0.5758808047282146,16.28156454861874,1.095938986609159,-0.518744535978711,-0.05830717258405768,-3.0825358925655966,0.0010081594223911032,0.8527761423586752,-0.10045449780363473
2025-05-02 13:51:39.400,16.33148485053362,-0.03600780492237821,0.014939839396712942,0.10688570303013795,16.33148485053362,0.06461801696829259,-0.018790067056094165,0.002993445984459128,16.33148485053362,41.13826741394195,-32.10822466514613,-16.81302478852532,16.33148485053362,9.7390246280645,0.9863778110636353,-0.5718525604758773,16.33148485053362,1.093673234981987,-0.5177895915654444,-0.058307209493559116,-3.082948165454825,0.0011875722639913004,0.8533772803597343,-0.1007536948174953
2025-05-02 13:51:39.450,16.381405261258966,0.06346306213769899,-0.025913284859644517,-0.15695142378774457,16.381405261258966,0.015988203737828388,-0.039218027572015236,0.0038317632550994747,16.381405261258966,41.15798975093114,-32.03798015745656,-16.814443301043074,16.381405261258966,9.7393115263957,0.9912084255163971,-0.5527345807186022,16.381405261258966,1.0912759848865263,-0.5167934524879897,-0.05804394069793433,-3.0849082507226826,0.002092079460413837,0.8539521678694303,-0.10124907541071168
2025-05-02 13:51:39.500,16.4313255487189,0.023391110579377122,-0.018528005463751773,-0.06446838060341563,16.4313255487189,-0.05451587455299438,0.007597563222771439,-0.009869176056561681,16.4313255487189,41.1441239790484,-32.05919233557791,-16.78119739452446,16.4313255487189,9.739687472344848,0.9906836003431712,-0.5454069768912339,16.4313255487189,1.0924404024037857,-0.5173173566966695,-0.057824820716107575,-3.0856605462054065,0.0024344091481216484,0.8536563474800246,-0.10119525684332442
2025-05-02 13:51:39.550,16.481245856779978,-0.06166357975353881,0.047669935029503806,0.14300599472792722,16.481245856779978,-0.04492722602945382,0.03971373688436119,-0.005555189793846977,16.481245856779978,41.10861494869073,-32.143879866877995,-16.767061161494794,16.481245856779978,9.739486399812344,0.9873545942164328,-0.5622644575239459,16.481245856779978,1.0952228692229244,-0.5184761426981289,-0.05809483901516556,-3.083932207526653,0.001677907448305053,0.8529720194728184,-0.10085384322915136
2025-05-02 13:51:39.600,16.531166274789705,-0.013738553171901204,0.046135830931159805,0.07605111185946278,16.531166274789705,-0.016953190014478422,0.0034550271296574417,0.003735217778120709,16.531166274789705,41.04792782087714,-32.24401947946267,-16.796337243282473,16.531166274789705,9.738494047053813,0.9878315514069635,-0.575265171243677,16.531166274789705,1.096801298451873,-0.5190964998984186,-0.05848396133804306,-3.0825974516636148,0.0011733798749556463,0.852536016762063,-0.10090293161432565
2025-05-02 13:51:39.650,16.581086630085448,0.0034351697446374516,0.024943572343866332,0.06167727650481168,16.581086630085448,0.011515064161197092,-0.012789420700265187,-0.007534377128081219,16.581086630085448,41.06451361240495,-32.3224043697189,-16.800427388366884,16.581086630085448,9.738298493007457,0.988335519503894,-0.5723449913676318,16.581086630085448,1.0969993870038546,-0.5191861069206734,-0.05844220939131181,-3.0828960848062175,0.0013273843932859054,0.8524765416783289,-0.10095461852106488
2025-05-02 13:51:39.700,16.63100699107212,-0.04172028611946226,0.04797955453725537,0.06405898181250942,16.63100699107212,0.043613438763697124,-0.01283349122066221,-0.009428201738250023,16.63100699107212,41.019726306408536,-32.335822002704404,-16.792432423127046,16.63100699107212,9.73912827919204,0.9866058520940455,-0.5646483147901967,16.63100699107212,1.09560090163053,-0.5186326504652722,-0.05813390423189576,-3.0836868193292597,0.0015694652660777086,0.852874198206442,-0.1007771131705332
2025-05-02 13:51:39.750,16.68092741169967,0.025325576099389485,-0.0010688293407909956,-0.14349767805501684,16.68092741169967,0.02923920459552553,-0.03296399723916457,2.77412108781684e-05,16.68092741169967,40.99576009825959,-32.293954759433355,-16.785622471807205,16.68092741169967,9.739773031361757,0.9874619379486016,-0.551536334501531,16.68092741169967,1.093391181118236,-0.5177130766705601,-0.057835002063537935,-3.085032427072941,0.0021026693768138784,0.8534214337219721,-0.10086496053898837
2025-05-02 13:51:39.800,16.730847737744067,0.04139215814845562,-0.028125816707729644,-0.17729901564610462,16.730847737744067,-0.039625705838081955,-0.006254833336650379,-0.009983545328145289,16.730847737744067,41.033738114506036,-32.24087138853992,-16.69632845080542,16.730847737744067,9.740189194051943,0.987467243506642,-0.5395790236247677,16.730847737744067,1.0937410781636312,-0.5178846775884434,-0.05754115703881038,-3.0862606780248716,0.002639491809424996,0.8532982299778218,-0.10086589371881788
2025-05-02 13:51:39.850,16.78076806663393,-0.058803432123484704,0.03181307933226806,0.07806368392963764,16.78076806663393,-0.03613619903842814,-0.006466117313474691,-0.011586092107241139,16.78076806663393,41.050562633167715,-32.2046357552767,-16.544046788782545,16.78076806663393,9.741021361379776,0.9827213865332262,-0.5432773635437349,16.78076806663393,1.0959720772475057,-0.5188515854312872,-0.057403854109061035,-3.085885898723062,0.0024029469981795204,0.8527521412704563,-0.10037954271145616
2025-05-02 13:51:39.900,16.830688487375294,0.021180108162110554,0.04814830188517919,-0.0874758645785438,16.830688487375294,-0.03157828264242366,-0.0465929314997786,-0.013131999980771206,16.830688487375294,41.09682427252933,-32.161594716318916,-16.375289290990626,16.830688487375294,9.74199433553451,0.9781988558216704,-0.5302202069205152,16.830688487375294,1.0974573919627415,-0.519528473051023,-0.0568709829680689,-3.0872282986939914,0.002907655954587446,0.8523605463053506,-0.09991593446917435
2025-05-02 13:51:39.950,16.88060881364733,0.05447081553737335,0.02083309975937343,-0.13479154461562087,16.88060881364733,-0.05740615641980474,-0.045139446346705886,-0.0253047219291981,16.88060881364733,41.1702762630437,-32.15597918317042,-16.184041839101692,16.88060881364733,9.74350433106839,0.9680516267359756,-0.5098496157012118,16.88060881364733,1.099572845198901,-0.5205077118040815,-0.05590242276332404,-3.0893211460432735,0.003610124974463946,0.8518151781534108,-0.09887576966388505
2025-05-02 13:51:40.000,16.930529099627627,-0.022668201156650438,0.019863186067238598,-0.02001166821837462,16.930529099627627,-0.07404656784309388,-0.008579876211782338,-0.025633456324181594,16.930529099627627,41.24074091700139,-32.203034884223925,-16.02367777079695,16.930529099627627,9.745243344458684,0.9552204169470251,-0.49919424924418976,16.930529099627627,1.1029387828892814,-0.522019123064165,-0.05502841432376508,-3.090418546923468,0.003832882759217404,0.85099400626466,-0.09756035133453021
2025-05-02 13:51:40.050,16.980449502613315,-0.03447491820327749,0.03365426108565664,0.12781003395097496,16.980449502613315,-0.042835220424480146,-0.002521810382452661,-0.01260394686854734,16.980449502613315,41.31991921449329,-32.237309766649446,-15.917925769299101,16.980449502613315,9.746073735875488,0.9458671448637938,-0.5020973406091647,16.980449502613315,1.105971562784974,-0.5233221266488813,-0.05468089282662981,-3.0901241797250574,0.0035380936034030055,0.8502212202021134,-0.09660177212701145
2025-05-02 13:51:40.100,17.030369843340296,0.011058255160929007,-0.02763974649393344,0.0787025739170616,17.030369843340296,-0.022503986270416654,-0.01686609944845349,-0.0087506809352196,17.030369843340296,41.38363021459345,-32.280339096531804,-15.873572680777919,17.030369843340296,9.746457170517434,0.9419587901045339,-0.49692006637192215,17.030369843340296,1.1075596556533513,-0.5240076068239975,-0.054395727097473284,-3.0906580245659048,0.003706699626325262,0.8497781699773888,-0.09620178070077773
