time,seconds_elapsed,z,y,x,seconds_elapsed,z,y,x,seconds_elapsed,z,y,x,seconds_elapsed,z,y,x,seconds_elapsed,yaw,qx,qz,roll,qw,qy,pitch
2025-04-28 10:55:55.200,5.02592009874891,6.762159109533833,1.528833489671354,-6.021699393191172,5.02592009874891,0.9998485824054162,3.5693257663242717,2.0557399566461196,5.02592009874891,-25.02150635619265,33.319887259956865,27.316781594869987,5.02592009874891,-3.1150349239621256,9.379693854651089,2.111005884553064,5.02592009874891,2.0532539032332155,0.590354368835914,-0.27205359598476353,1.3629813776797433,-0.7695934417828503,0.06036203863764387,-1.2717171924996948
2025-04-28 10:55:55.250,5.072789703206951,5.079765544274609,3.1918126874971073,-5.094298139635541,5.072789703206951,0.1948048058272045,1.9585055181660262,0.43387125214080124,5.072789703206951,-21.18395471532863,35.38019567102821,26.26674260066107,5.072789703206951,-2.1121977454075394,9.450725283571337,1.8584321397202155,5.072789703206951,1.418794861764101,0.6213493028900796,-0.2613451350788633,0.9651612808460102,-0.7351798615220237,0.08976942774214886,-1.304896429052079
2025-04-28 10:55:55.300,5.120182818464089,3.4520690575261677,4.2708009967124605,-4.145748822439902,5.120182818464089,-0.45225496450808067,0.6493596186442874,-0.8233697670309126,5.120182818464089,-17.66980484969133,37.33436558152136,24.93747653063084,5.120182818464089,-1.1865625820137615,9.500332406207956,1.5689956011577038,5.120182818464089,0.8267204860378166,0.6484039042498623,-0.25072611744312595,0.5488826740552109,-0.7034452529927605,0.1203314404724023,-1.328715318288036
2025-04-28 10:55:55.350,5.168099444520324,1.8790696492885104,4.765798417317414,-3.1760514416042556,5.168099444520324,-0.9413307286004393,-0.35811193224094406,-1.7159831008690225,5.168099444520324,-14.479056759280764,39.18239699143631,23.328983384779296,5.168099444520324,-0.3381294337807921,9.528515222560946,1.2426962688655292,5.168099444520324,0.277030776054362,0.671518172915262,-0.2401965430775515,0.11414555730734532,-0.6743896161950603,0.15204807682840416,-1.343173860207566
2025-04-28 10:55:55.400,5.216539581375657,0.36076731956163677,4.6768049493119666,-2.1852059971286026,5.216539581375657,-1.2724224864498714,-1.0639091344896698,-2.2439687493735274,5.216539581375657,-11.611710444096925,40.924289900773076,21.441263163106438,5.216539581375657,0.433101699291369,9.535273732630309,0.8795341428436914,5.216539581375657,-0.23027426818626262,0.6906921088862785,-0.22975641198213992,-0.3390500693975862,-0.6480129511289234,0.1849193368101545,-1.348272054810669
2025-04-28 10:55:55.450,5.265503229030097,-1.1028379316544583,4.003820592696129,-1.1732124890129427,5.265503229030097,-1.445530238056381,-1.468031988101896,-2.407326712544432,5.265503229030097,-9.067765904139828,42.56004430953172,19.274315865612298,5.265503229030097,1.1271308172027261,9.520607936416063,0.4795092230921906,5.265503229030097,-0.695194646684059,0.7059257121629137,-0.2194057241568917,-0.8107042060595858,-0.6243152577943509,0.21894522041765377,-1.3440099020973473
2025-04-28 10:55:55.500,5.316665592675566,-4.020935427280442,1.9768182236633942,0.5992029822596352,5.316665592675566,-1.4962682919186037,-0.9931245077214725,-1.8529962763537662,5.316665592675566,-5.643900005634029,44.96811889079356,15.446640462808714,5.316665592675566,2.1172043602268915,9.457614288956481,-0.19232626301044387,5.316665592675566,-1.374352411713952,0.7252335054767249,-0.20544547128654642,-1.5842890294898568,-0.5892682122969184,0.27550276687732134,-1.3202891521373896
2025-04-28 10:55:55.550,5.366571544357348,-7.400964310831386,-1.3354404669312658,3.2578060524873336,5.366571544357348,-1.0875338113634485,-0.39075718309322244,-0.8177085171351642,5.366571544357348,-3.272561282711437,46.71223854473988,12.212304623477138,5.366571544357348,2.7497487811310077,9.381296562033056,-0.7916164275508568,5.366571544357348,-1.9239109854143515,0.7349696863028844,-0.18868787565362957,-2.2584052416779006,-0.5696193262159247,0.31605270897337906,-1.2895590510699753
2025-04-28 10:55:55.600,5.4164775292741245,-5.968532397772277,-2.170862619748323,2.6592869333582683,5.4164775292741245,-0.7676041276218054,-0.9498249211559195,-0.026630715046312474,5.4164775292741245,-2.667992971993833,47.596716365503106,9.924316278204241,5.4164775292741245,2.981450233704361,9.335814973475001,-1.1578868088117253,5.4164775292741245,-2.261171673400728,0.7328140419694907,-0.18583160855166483,-2.782076128359996,-0.5609812169904973,0.3449791674018216,-1.2686317347762515
2025-04-28 10:55:55.650,5.466383572807414,-3.0943434468545434,-2.1540298968195652,2.0133030728329357,5.466383572807414,-0.4025768023496612,-0.7788873992686662,0.5654907126526748,5.466383572807414,-3.6424910609816705,47.692498195977315,8.058020417895925,5.466383572807414,2.872247812472325,9.305170472995574,-1.3498719301555302,5.466383572807414,-2.2708315013988454,0.7166004549306125,-0.19584341305603173,-3.049183112078238,-0.5610732919031673,0.36812882550249126,-1.250742542031927
2025-04-28 10:55:55.700,5.516289579804974,0.3948196396658487,-0.6682847484926817,1.2073764468421642,5.516289579804974,-0.21590893760254096,-0.6265405881338028,0.5328754004586007,5.516289579804974,-5.0673710180607285,47.54405188927296,7.0668191549661445,5.516289579804974,2.6520192899464403,9.327562261516967,-1.3840681333702562,5.516289579804974,-1.7557919469485972,0.6997160357225549,-0.20880552068268185,-2.838752184014907,-0.5652656123391341,0.38083082936487916,-1.2586806204391587
2025-04-28 10:55:55.750,5.566195572119951,1.8888330927193726,0.5835752972256434,0.8648163000697141,5.566195572119951,-0.1980636498606432,-0.29266534329051275,0.09398042159480678,5.566195572119951,-5.891119299401785,47.53698302226756,6.283805018427226,5.566195572119951,2.547862347139828,9.340916424646574,-1.4347856684954803,5.566195572119951,-1.7111657049482727,0.6896280730137738,-0.21671959082964667,-2.6126854634686496,-0.5665554090435295,0.39146555625595403,-1.266932318249854
2025-04-28 10:55:55.800,5.6161015751338645,1.2742745581072505,2.042775371215771,1.6867517543918824,5.6161015751338645,0.12032289043555197,0.16142275399617473,0.01676277709660283,5.6161015751338645,-5.921668006879203,47.621298167977976,5.840681951918538,5.6161015751338645,2.5402083127201256,9.347080086708871,-1.5067036280315946,5.6161015751338645,-1.67208012249785,0.6872703302091023,-0.21532920582681084,-2.9987131520731456,-0.5676693405704598,0.39478054910594196,-1.2683643527364508
2025-04-28 10:55:55.850,5.666007544343691,0.3411048627940123,2.649532670334195,2.6330174652141274,5.666007544343691,0.5160387318728978,-0.3066333512378331,-0.44785111859128324,5.666007544343691,-5.584464319046852,47.671845791334434,6.275409113388255,5.666007544343691,2.608977521418186,9.366899020790251,-1.4259748547433804,5.666007544343691,-1.8720633546374572,0.6913586567277646,-0.21590557900023266,-2.9835611222056633,-0.5651957869092584,0.3916370275841578,-1.273041524052776
2025-04-28 10:55:55.900,5.715913494887288,-2.133287631523408,3.1773315661096944,3.044938213827554,5.715913494887288,0.8978705225204138,-0.28235954882268843,-0.2645839717560444,5.715913494887288,-5.266808143028859,47.65296007703246,7.241363653436425,5.715913494887288,2.7523308788311525,9.380343449359872,-1.1615019401151336,5.715913494887288,-2.1649928918882555,0.6990602908340351,-0.2274291013925971,-2.4855932460493566,-0.5538705334499783,0.3898151196633567,-1.2781641110362036
2025-04-28 10:55:55.950,5.765819432683216,-3.3411391771103114,2.777581957371938,2.3691899996983183,5.765819432683216,1.0130402174150914,0.42400711814944675,0.3322544690126036,5.765819432683216,-5.446954267452938,47.05661315206615,9.219461820731373,5.765819432683216,2.688443231343231,9.390514535454427,-0.7724600851702006,5.765819432683216,-2.074156362868516,0.7060617237101433,-0.23662948678087894,-1.7781523942845132,-0.5518499170586761,0.3705328575423749,-1.284868158009293
2025-04-28 10:55:56.000,5.815725336219784,-4.412584666440186,1.203525369301123,1.899718331853493,5.815725336219784,1.0901202910881524,0.7496271842287431,0.9077118349849921,5.815725336219784,-6.42551904780605,45.998845411180724,11.804744373668353,5.815725336219784,2.3653402853785215,9.417330331717528,-0.3438784861625884,5.815725336219784,-1.6892351350465407,0.7091025534678521,-0.24260135326123275,-0.9544893879154234,-0.5621442429610081,0.3372872971753303,-1.2977533134268464
2025-04-28 10:55:56.050,5.8656312531869315,-5.635998004106022,-0.9051629887701298,1.7395470465844836,5.8656312531869315,1.2376920348541334,0.6619373706393048,1.622708066672716,5.8656312531869315,-8.722624679601019,44.53276361496587,14.840836005222027,5.8656312531869315,1.7368959710786016,9.488135619909828,0.1434171657723416,5.8656312531869315,-1.0752432605832585,0.7049331153657908,-0.25368808878757926,-0.10048394648433989,-0.5836104613649508,0.29578478377015116,-1.3262640723522894
2025-04-28 10:55:56.100,5.9155371850642995,-2.0610732995304657,-0.2286403525575494,-0.9420825322985631,5.9155371850642995,1.0738609035670923,0.19628825885154755,1.8902784769751164,5.9155371850642995,-12.1527583551296,42.67407562327006,17.990994412082102,5.9155371850642995,0.9192480594504858,9.577145003315438,0.7259563463557722,5.9155371850642995,-0.33360111035990714,0.6922688204596463,-0.27682454314973587,0.6555479853268428,-0.6081590333830941,0.2555472697209107,-1.3601859586035197
2025-04-28 10:55:56.150,5.965443120014766,0.06432543865362042,0.2981698760811258,-2.342962906018938,5.965443120014766,1.0100615379016324,0.527099164632652,2.0335316228144147,5.965443120014766,-15.582091851223359,40.44510749870257,20.883100908897468,5.965443120014766,0.06644952285749467,9.608124809531175,1.3148235973218314,5.965443120014766,0.45247298294635646,0.6727345798160287,-0.29996453438430537,1.2471001693727068,-0.6340808615407741,0.21599894781680332,-1.371151362277586
2025-04-28 10:55:56.200,6.015349090021322,2.085081163408541,0.9058876582986305,-3.511203896556835,6.015349090021322,0.8865354326221514,0.4942258990172195,1.679373316416447,6.015349090021322,-18.422719895867523,38.14161486503415,23.747928745652192,6.015349090021322,-0.6881453077188461,9.586057522492533,1.8963147959498297,6.015349090021322,1.1626601319941996,0.6555146013918288,-0.3189188585376174,1.563914826302873,-0.6576358633305259,0.17600633365821816,-1.3614825616850545
2025-04-28 10:55:56.250,6.065255047849302,3.4465122736740024,0.6052244009541394,-4.334231023921126,6.065255047849302,0.6434897181402153,1.412290914686691,1.0985645421457206,6.065255047849302,-20.030051413227124,36.03937498861824,26.232630504261426,6.065255047849302,-1.2457562031442257,9.500716458399348,2.335993807387935,6.065255047849302,1.659655753526875,0.6450518992255585,-0.3247015413613262,1.4808208626937756,-0.6776078723471163,0.13665927918226184,-1.3273766353771228
2025-04-28 10:55:56.300,6.115161014327485,4.056944142878386,0.610976960187532,-4.470310523773956,6.115161014327485,0.210489798717566,1.2940160039421595,0.41386269944565945,6.115161014327485,-20.139870127431212,34.780163787628474,28.06911008608098,6.115161014327485,-1.539958074436231,9.45086637832639,2.5183549473574267,6.115161014327485,2.4384611631341544,0.6448499141602752,-0.31101111342206655,0.9743894288616957,-0.6956433009837222,0.09950783198518068,-1.307188637391931
2025-04-28 10:55:56.350,6.165066963960534,3.535164545951775,2.1253940814249046,-4.11793988123443,6.165066963960534,-0.222472318775935,-0.08415487646222967,-0.8513519742688953,6.165066963960534,-19.084721705296705,34.80151347269276,28.521306142384706,6.165066963960534,-1.3876482155097798,9.441553135739625,2.518210644282329,6.165066963960534,2.294621850348223,0.6526376830928837,-0.3003187737171112,1.0177149997393093,-0.694909505573787,0.0912031665473361,-1.3021339666802798
2025-04-28 10:55:56.400,6.214972929755807,1.8777902214183795,4.041417368191031,-3.679615293317716,6.214972929755807,-0.5400839828041618,-0.6140003504869839,-1.3168870914024107,6.214972929755807,-17.190068157347252,35.95959017382366,27.578835028090467,6.214972929755807,-0.8444862136541225,9.44609753400777,2.388096569009678,6.214972929755807,1.6779262702526376,0.6657173665249497,-0.2979544137796048,1.3319446398152268,-0.6736968673811066,0.11292044291985895,-1.3034304189504442
2025-04-28 10:55:56.450,6.264878897372174,1.519660147732258,4.756779868022326,-3.192711708303439,6.264878897372174,-0.9111445010507324,-0.7546285815554363,-1.7482477275064228,6.264878897372174,-14.61487110911553,37.61717843720417,26.07732161230703,6.264878897372174,-0.12950836024490292,9.445142011578378,2.145646505578917,6.264878897372174,1.0256916159011946,0.6823211598049296,-0.291697697752493,2.1786615079884935,-0.6468017430448532,0.14426759354852675,-1.3042271566083476
2025-04-28 10:55:56.500,6.314784812404408,0.16379010511502926,4.6738959990637134,-2.0338533009646227,6.314784812404408,-1.2566011650648459,-1.137674118768609,-2.0839538321263773,6.314784812404408,-11.458181606194941,39.85645239770005,23.60126908308982,6.314784812404408,0.7623132172592527,9.438708860127036,1.7226345420679912,6.314784812404408,0.21597325977550097,0.7009667669094698,-0.28206380879914905,2.41140270820539,-0.6137274644115172,0.19013602105807484,-1.3034114412457876
2025-04-28 10:55:56.550,6.364690738704671,-1.8705374284732328,3.480431021308963,-0.6600616692397265,6.364690738704671,-1.521844098003181,-1.304468949972753,-2.020485399930476,6.364690738704671,-8.45051737609723,42.47539712688039,20.104275270831106,6.364690738704671,1.6824423791548595,9.431309839800099,1.1354093445861975,6.364690738704671,-0.6214188764008766,0.7167069632904197,-0.2723253720118476,2.15897731046622,-0.5794022821809418,0.2480559175513941,-1.3006467388063045
2025-04-28 10:55:56.600,6.414596718044342,-4.638211500147383,0.7739037301503033,1.0669062010297528,6.414596718044342,-1.4800990679742052,-0.8086932470670342,-1.3710925732198744,6.414596718044342,-5.964139377265002,44.8971948583644,16.330099238326817,6.414596718044342,2.4606153570122697,9.414269237179488,0.47160997308987956,6.414596718044342,-1.3920548824937402,0.7269191552534543,-0.2600045664082977,1.5401533249949033,-0.5522958486605979,0.3045572196071489,-1.2910167003202428
2025-04-28 10:55:56.650,6.464502681221789,-6.484288547379608,-1.7371066599967933,3.4296884456628196,6.464502681221789,-0.9344923081514741,-0.6223075362039627,-0.43266882782971416,6.464502681221789,-4.8938050027771824,46.336356736118816,13.54304850118147,6.464502681221789,2.8183615793759627,9.403178733578024,-0.04381810561056462,6.464502681221789,-2.012794885542063,0.7276062968042448,-0.24980048977143374,0.6613278141257913,-0.5422492405646552,0.3402278001231318,-1.2885943854412396
2025-04-28 10:55:56.700,6.514408666593839,-4.8155549891891525,-1.6365398133035367,2.3018635320237304,6.514408666593839,-0.771094535127944,-1.2666170343748022,0.31819272134583404,6.514408666593839,-5.310427173534486,46.989647455815785,11.197647308136228,6.514408666593839,2.856501169544049,9.408096342668882,-0.35626088126312483,6.514408666593839,-2.381569294291563,0.7160265690300603,-0.2552774622535276,-0.42110645847361233,-0.5377996942342221,0.3696998512572505,-1.2919286908055827
2025-04-28 10:55:56.750,6.564314652307344,-1.9956033412651757,-2.327224640990791,0.7480243568935354,6.564314652307344,-0.7100509658837947,-0.5003081525782338,0.6664946164914136,6.564314652307344,-6.970091101728691,47.01992271441135,8.666638766913445,6.564314652307344,2.6203081859079154,9.41605671029573,-0.6286585896514166,6.564314652307344,-2.3393733256363087,0.6910369275584682,-0.2682683812930758,-1.5415460780760641,-0.5414942571579205,0.3964366918390538,-1.2944188015905247
2025-04-28 10:55:56.800,6.614220632785199,0.08189362926715138,-1.3092017510083127,0.6919156954885106,6.614220632785199,-0.4498454338169748,-0.2610570615396292,0.6701779669658722,6.614220632785199,-8.282556621844972,46.95272364760902,7.143860716919817,6.614220632785199,2.341172256319165,9.453671421211247,-0.8938062436443345,6.614220632785199,-1.7289439283886325,0.6743447548537499,-0.26630998678774753,-2.4774609431696457,-0.5551580321094189,0.4034876767859447,-1.3086191793614255
2025-04-28 10:55:56.850,6.664126601539752,1.9015760693378312,0.49803470242971876,1.7290505797377382,6.664126601539752,-0.3506557992566169,-0.8603403415539624,0.6010553201894988,6.664126601539752,-10.04965650296158,46.885840071387065,5.542282744721113,6.664126601539752,2.0433307595602703,9.518250517124272,-1.0709241007732218,6.664126601539752,-1.611999330297611,0.6537289771220384,-0.2773838590004852,-3.045382243666557,-0.5629816162955693,0.4176792807007438,-1.3339407433535273
2025-04-28 10:55:56.900,6.714032612520958,2.2546391136515767,1.817020552251071,2.480480801221094,6.714032612520958,0.0007389525450886385,-0.29642650887526495,0.2473866578634391,6.714032612520958,-11.40873571009072,46.78687473821763,4.6106192564353075,6.714032612520958,1.8407256017028977,9.567557557831412,-1.1311839356376079,6.714032612520958,-1.5333065609335566,0.6402727028636749,-0.2882173113834536,-3.446492463123602,-0.5670547302864953,0.42694835465478065,-1.3531753813717275
2025-04-28 10:55:56.950,6.763938590153352,1.3647327123982365,2.5933520922989097,2.5391410531748635,6.763938590153352,0.319834654161703,-0.4490103909220461,-0.1542494625617301,6.763938590153352,-11.827004314858348,46.67094443439059,4.802488946803534,6.763938590153352,1.8022089849227168,9.589423672328444,-1.035991259594093,6.763938590153352,-1.611535975781089,0.6379712883294586,-0.29612647149145416,-3.0379732414607834,-0.5660026103491281,0.42849618953157687,-1.3612159072665098
2025-04-28 10:55:57.000,6.813844538079125,-0.2653866537783523,2.7160181251207303,2.0362874298299154,6.813844538079125,0.4876290651867591,-0.7255942524104702,-0.20107109573059753,6.813844538079125,-11.6785220344028,46.69245919892294,5.276883958936584,6.813844538079125,1.8756090559993168,9.601686878625557,-0.8178375723298114,6.813844538079125,-1.9516204152935837,0.6384493945209229,-0.3098657002448835,-2.572573994469035,-0.5548604440296683,0.43246330379009656,-1.368438428605047
2025-04-28 10:55:57.050,6.863750496134742,-2.0894617991236033,1.7766040205424567,1.4460833537347715,6.863750496134742,0.4674801610844408,-0.6712922175794784,0.16522756327282334,6.863750496134742,-12.001398587171321,46.57869715123755,5.712765993771868,6.863750496134742,1.8359468372498837,9.621365160390017,-0.5699692455741925,6.863750496134742,-1.8721947792860787,0.6360485811099251,-0.32883349092114256,-1.8979639916119033,-0.544734139953393,0.4344958158515586,-1.3840285632691283
2025-04-28 10:55:57.100,6.913656480027151,-4.190439887775473,-0.42386958405052577,1.3204839317022896,6.913656480027151,0.4291622231629772,-0.3051241435683698,0.6170232541216574,6.913656480027151,-13.223901957620862,46.106264085036166,6.3575582508718655,6.913656480027151,1.5878329057679543,9.658554305306792,-0.35137918776381993,6.913656480027151,-1.544055238855036,0.631118612984414,-0.3472499902228557,-1.1647765339391194,-0.5441996334576726,0.428924700340999,-1.4065458517738445
2025-04-28 10:55:57.150,6.963562418619809,-5.044520665690243,-1.157830597026012,1.4534565109437472,6.963562418619809,0.5741015465109514,0.03005119440577785,1.4026635384226214,6.963562418619809,-15.891817867394687,45.16286498738902,7.568607285861944,6.963562418619809,1.0108015726511939,9.722356412213363,-0.08524574214816907,6.963562418619809,-1.0469838492590864,0.6219527464744301,-0.3680356794190208,-0.44906332727222215,-0.5574027591700511,0.4109063845489556,-1.4400559194445879
2025-04-28 10:55:57.200,7.013468386349996,-1.6803169985369557,-0.1994751647091168,-1.3568415984548052,7.013468386349996,0.26411470634155126,0.9904828198757784,1.6820810863292344,7.013468386349996,-18.810217669293642,43.626941942335115,9.446429222836107,7.013468386349996,0.28824090775857597,9.737778070414954,0.2903113268578811,7.013468386349996,-0.4601705342177894,0.609438946082876,-0.38236185180573806,0.1823085400605414,-0.5789196899969401,0.377796890033744,-1.4493404495566575
2025-04-28 10:55:57.250,7.063374359429651,-0.44049678445881035,-0.9539257709268686,-2.5985303313889947,7.063374359429651,0.23991201991662614,1.7574221211921963,1.6634388126728183,7.063374359429651,-20.953639672908523,41.74644337189513,11.826560365903656,7.063374359429651,-0.41477265699272764,9.691953382495393,0.6321278487643939,7.063374359429651,0.21741039356177277,0.5988010346349746,-0.3817014727647656,0.7391223579959704,-0.6075742117588514,0.3331496779481093,-1.4296016476518767
2025-04-28 10:55:57.300,7.113280301892136,1.0673630047162277,0.2722852417185944,-2.878629221754752,7.113280301892136,0.5684252371286471,2.4011372478587703,1.598344601569202,7.113280301892136,-22.699643677042417,39.490874532775265,15.407365314332516,7.113280301892136,-1.1317092321582494,9.599443846316266,1.0540452729991543,7.113280301892136,0.8003679159262072,0.5960275660366094,-0.3691695567019218,1.0438813470473283,-0.6435492430812744,0.27075687207550364,-1.3846767625877614
2025-04-28 10:55:57.350,7.163186264045217,3.90440369283727,0.7489833890430582,-3.4479208604848024,7.163186264045217,0.28492310098557,2.726105264478776,1.2540112103789312,7.163186264045217,-23.890087335760004,37.26683517491632,19.266761164454085,7.163186264045217,-1.7313069299895416,9.53929336483145,1.510857565173935,7.163186264045217,1.6435017857657312,0.5957002750680759,-0.35378608391926586,1.1974187149716984,-0.6760650575967017,0.20710149402639277,-1.3542579693280015
2025-04-28 10:55:57.400,7.213092239856516,4.8982134868427405,1.8282947851164388,-4.390936596388919,7.213092239856516,-0.16353674975933763,2.6442279850165393,0.11972198139676436,7.213092239856516,-23.439962981964385,35.999525675740365,22.80240245899126,7.213092239856516,-1.955832321647315,9.516098482746761,1.7367279318482054,7.213092239856516,2.016742137287295,0.610062458028215,-0.32078020113418476,1.1693565916926887,-0.7033314856580807,0.150736889750909,-1.3418856307976867
2025-04-28 10:55:57.450,7.262998216805999,4.116435561379145,4.182922183719202,-4.5755146294389375,7.262998216805999,-0.42822963518279517,1.1174253460028538,-0.9777200589612116,7.262998216805999,-21.23485408329469,36.111935360781885,24.871273632983286,7.262998216805999,-1.6407288423067268,9.503932479306103,1.7656471938696905,7.262998216805999,1.7195524565891527,0.6335224125645303,-0.28832381970526716,0.9580337775559438,-0.7086409123703722,0.12556127792219524,-1.3317950909730378
2025-04-28 10:55:57.500,7.312904208893339,2.6930150142788203,5.190249284243356,-4.236598614830997,7.312904208893339,-0.6744029213498539,-0.05231053181739422,-1.6339003742296976,7.312904208893339,-17.906489915114225,37.367069982426514,25.131748432435142,7.312904208893339,-0.9218997301644736,9.51118027714382,1.6715063407787096,7.312904208893339,0.9180981548298806,0.6580943627371807,-0.26852302841879305,0.7419801603578317,-0.6887456408232838,0.13402078489683336,-1.33306119749739
2025-04-28 10:55:57.550,7.362810128136855,1.2557172918387693,5.056662920808709,-3.2538160599554824,7.362810128136855,-1.0996050261186858,-0.8023293471385015,-1.966394608632812,7.362810128136855,-14.318081636584479,39.323001731748164,23.528934576572574,7.362810128136855,-0.029557140979347703,9.528070689521796,1.3259677003926307,7.362810128136855,0.2958534545195157,0.6807900279375259,-0.2539078308830586,0.1794010328511522,-0.6586151246514791,0.16681154840966186,-1.3429171764881982
2025-04-28 10:55:57.600,7.412716037933439,-0.9299279994527914,4.068079661103272,-1.6833974650364973,7.412716037933439,-1.4758744656240783,-1.314143312255267,-2.0944047488880098,7.412716037933439,-10.86165431451689,41.806908425640216,20.274419973947,7.412716037933439,0.9456952685780291,9.536089306049348,0.728678448332946,7.412716037933439,-0.4315414110086933,0.7002891397404817,-0.24075156161788605,-0.5786927080242825,-0.6244482394006644,0.21929791239334023,-1.3481559698162717
2025-04-28 10:55:57.650,7.462621935779084,-3.3529583506726626,2.2588594526434487,0.2718858999061176,7.462621935779084,-1.5823914998478028,-1.131438432508835,-1.6321124089938264,7.462621935779084,-7.845568114949847,44.424856617178506,16.071664009005357,7.462621935779084,1.834816829375567,9.518618834585878,-0.005048151861552532,7.462621935779084,-1.141150956086186,0.7139181982029748,-0.22750380093456263,-1.3888510714525866,-0.5936784732464088,0.27928049031826563,-1.340101756273241
2025-04-28 10:55:57.700,7.512527837949829,-6.873390114399178,-1.4419262275152156,3.0695914870196535,7.512527837949829,-1.223519282744623,-0.6270215672073957,-0.7450624872928195,7.512527837949829,-5.591229169796687,46.43657365990141,12.37395336800247,7.512527837949829,2.437497755746903,9.474091329906608,-0.6381427123309711,7.512527837949829,-1.7398012501688194,0.7197923425252907,-0.21233873261045294,-2.1217882851179937,-0.5754073783833651,0.3245191846579401,-1.3194111141897837
2025-04-28 10:55:57.750,7.562433756055161,-5.252090301543479,-1.8185319961457171,3.680383827943985,7.562433756055161,-0.719618927404321,-1.3475763266424232,-0.03002229378078927,7.562433756055161,-4.805895782684124,47.50542423274979,9.874000069144746,7.562433756055161,2.6802267037618694,9.451773783022825,-0.9819306191348907,7.562433756055161,-2.126494065584136,0.7155711000757606,-0.2137316180369898,-2.707914310413721,-0.5646582426344482,0.35732916440257156,-1.308423283551944
2025-04-28 10:55:57.800,7.612339658339725,-2.7575878441240014,-2.6345500641004804,2.2171184598019815,7.612339658339725,-0.5697549398684572,-1.1616084823380566,0.5964869569370533,7.612339658339725,-5.876014734370462,47.61667092063222,7.63545814638651,7.612339658339725,2.5745086001804225,9.420422310266684,-1.1620958842630726,7.612339658339725,-2.179608196634383,0.695289666099176,-0.2315250160742896,-3.0419736780231568,-0.5608562842938587,0.3871437054646118,-1.2916586064949045
2025-04-28 10:55:57.850,7.66224560171276,5.3656248176110084e-05,-1.509979411703062,1.216952624440497,7.66224560171276,-0.34728322391743516,-0.39793017980380013,0.5730469581616802,7.66224560171276,-7.271176858826413,47.342676577979425,6.075437525324625,7.66224560171276,2.342169075083812,9.42702439017917,-1.2903959823179971,7.66224560171276,-1.745235301114065,0.6760503268403227,-0.2416976181935914,-2.910845547540563,-0.5660871125798673,0.40107856192774893,-1.2937760698418228
2025-04-28 10:55:57.900,7.712151586174262,1.7868577310542806,0.1974259609484635,1.1997099717460535,7.712151586174262,-0.33453060233648646,-0.8285234766406634,0.32780580873533915,7.712151586174262,-8.493190518181384,47.22919108072928,5.021404175658338,7.712151586174262,2.159154692623644,9.454315291829303,-1.381387436498033,7.712151586174262,-1.566926767720522,0.6614939044021555,-0.251397160377284,-2.5564496077713725,-0.569849091978243,0.41315682575962054,-1.3072622071858941
2025-04-28 10:55:57.950,7.762057600570022,1.9749676659200162,1.738619526091785,2.1694628099969533,7.762057600570022,0.004261900293521378,-0.24370956391721402,0.13375890113951758,7.762057600570022,-9.38665002498318,47.24791736380493,4.1662152554883365,7.762057600570022,2.0738081259858134,9.480661105787668,-1.4211770378924067,7.762057600570022,-1.4962743438821209,0.6521223914083946,-0.26079184430678887,-2.939430858087823,-0.5703915058466505,0.42420248160568236,-1.3168710746401942
2025-04-28 10:55:58.000,7.811963651956787,1.4565228986068162,2.589728340532414,2.7127526001660893,7.811963651956787,0.43602503883915184,-0.08941489972156816,-0.15628272727791856,7.811963651956787,-9.632542629286428,47.19645007295775,4.533776385967559,7.811963651956787,2.0697127748736053,9.51165151024365,-1.3205432791338698,7.811963651956787,-1.5051854289286994,0.6536974718535034,-0.26439906487542075,-2.947337775018037,-0.571207434398748,0.4210008163861718,-1.3280626181728787
2025-04-28 10:55:58.050,7.861869645751404,-0.10731645747816214,2.912776092273625,2.685620479816755,7.861869645751404,0.7667991560694969,-0.7096130830007851,-0.39744877783290816,7.861869645751404,-9.453015314560137,47.21455640103723,5.425768274694069,7.861869645751404,2.174260963966711,9.528413168663336,-1.030776711139371,7.861869645751404,-2.06884683900919,0.6585698829506218,-0.2768174790892711,-2.460950481697112,-0.559485600719828,0.4200943072017823,-1.3336176586738795
2025-04-28 10:55:58.100,7.911775615416505,-2.27364547285673,2.459813803269023,2.099011772573262,7.911775615416505,0.8823743591966491,-0.700149245139882,-0.041842805227755506,7.911775615416505,-9.64988862151035,47.11648710379801,6.5508794753423825,7.911775615416505,2.2060137206569954,9.543038177757655,-0.6210466102902087,7.911775615416505,-2.103919504836054,0.6625118366820865,-0.2980003263398412,-1.7208417424616314,-0.5447063083989895,0.4173313176611952,-1.3413045163186832
2025-04-28 10:55:58.150,7.9616815943009005,-4.507127299020908,0.6483823307877306,1.5655092465598888,7.9616815943009005,0.838429589290391,-0.6601817097558305,0.5182345271249486,7.9616815943009005,-10.78428856198329,46.56027617198893,7.916535981718496,7.9616815943009005,1.999696587996392,9.561773666589708,-0.19683251502900648,7.9616815943009005,-1.811940159162067,0.6618113594945902,-0.3232794247123309,-0.9123708790823574,-0.5380802445807074,0.40824466249587765,-1.3497470161946146
2025-04-28 10:55:58.200,8.011587571136566,-7.002831270819488,-1.297206379998671,1.5807086947286433,8.011587571136566,0.8703386104016616,0.30574029775766276,1.6402006837037935,8.011587571136566,-13.35232046700861,45.41187950436619,9.745994180176943,8.011587571136566,1.4375619289059491,9.592811042625236,0.25599896506312814,8.011587571136566,-1.3066763747499748,0.6545258400832163,-0.34885788472477003,-0.1319839949422684,-0.5471572964048974,0.3857541961509049,-1.361867753916902
2025-04-28 10:55:58.250,8.061493545582042,-2.441555193623125,-0.02819274889229473,-0.5021824755496528,8.061493545582042,0.731980616809902,0.8447559433522499,2.046902444785019,8.061493545582042,-16.472735609930474,43.38521842334109,12.961511671515364,8.061493545582042,0.6129654262990658,9.610733863452692,0.8671256332954711,8.061493545582042,-0.6737964873081042,0.642643935479407,-0.3679245276433493,0.5583648275667848,-0.5705200613457742,0.33929786802676215,-1.3714473937463272
2025-04-28 10:55:58.300,8.111399503637658,-0.3029057668541336,-0.30646435832765223,-2.8478029106977125,8.111399503637658,0.4115067463654748,1.3201106741711843,2.082339858175163,8.111399503637658,-19.22853821085332,40.931708731129,16.19573876440946,8.111399503637658,-0.21818905530406024,9.574712380990599,1.408179416739964,8.111399503637658,0.07799998386197163,0.6276156724829078,-0.3774632172335412,1.1244363753015065,-0.5996638916814202,0.28785992444991493,-1.358745516481457
2025-04-28 10:55:58.350,8.161305509155577,0.8700199865042084,0.9290814563609039,-3.8095950628833646,8.161305509155577,0.5191644043933031,1.9418817494229608,1.8622664216792992,8.161305509155577,-21.608660575671127,38.36401651733692,19.3826076267483,8.161305509155577,-1.0274061022579153,9.500893247521763,1.8620280298022744,8.161305509155577,0.8114413819325664,0.6160807603984578,-0.3767998315512737,1.4328398168915242,-0.6338247396927084,0.23176837425960647,-1.3303433657826358
2025-04-28 10:55:58.400,8.211211499990913,3.2012119243720347,1.2442290911931246,-4.458344039267251,8.211211499990913,0.27073919182265627,2.4361677804193356,1.4901383119724327,8.211211499990913,-22.907625652749,35.928959645091325,23.017958236018593,8.211211499990913,-1.6591895075638314,9.411733046840942,2.2957267064674265,8.211211499990913,1.47377914213181,0.6123620938105854,-0.36361419223888053,1.3296639893832911,-0.6676444918771758,0.16964902034889912,-1.292603786667675
2025-04-28 10:55:58.450,8.261117473525843,4.800873524681691,1.458962727309919,-4.532216873419508,8.261117473525843,-0.12011221584349475,2.7606507621375624,0.6107540036275964,8.261117473525843,-22.707870469171187,34.3391368519177,26.148024111305425,8.261117473525843,-1.9939784749811438,9.37610534982707,2.4843467674720388,8.261117473525843,2.2537719603862154,0.6191259011451132,-0.3318931858251692,0.8136025402319519,-0.6994998192869324,0.11194103592514647,-1.2791052356075858
2025-04-28 10:55:58.500,8.311023522294784,4.869386501349961,3.0653545777178466,-4.615475623754856,8.311023522294784,-0.4947393753485536,1.2514035526168126,-0.690559692093822,8.311023522294784,-20.82821172256297,34.14030509895387,28.06984552414552,8.311023522294784,-1.818565824941326,9.38270382069158,2.4550080977856923,8.311023522294784,2.2136907440247993,0.6376421643449869,-0.2966542667787518,0.8761315917634502,-0.7127708835616345,0.08044265172316221,-1.2822274608293065
2025-04-28 10:55:58.550,8.360929537032,3.4294012097668225,4.651452253222685,-4.034602097306059,8.360929537032,-0.7117441536385436,-0.3313860814757914,-1.7052907235972572,8.360929537032,-17.80049289089821,35.37951869297703,27.94738674208286,8.360929537032,-1.1455282596921386,9.403578945769482,2.3078334644564786,8.360929537032,1.3363110770883626,0.6588108851200937,-0.27811291245771474,1.464631713048533,-0.6941433603761328,0.09208730560927027,-1.2900653469023682
2025-04-28 10:55:58.600,8.410835542777557,1.5506046169087813,4.849254274027127,-3.085421825077476,8.410835542777557,-1.0105269323226898,-0.9627849614321513,-2.046585479535011,8.410835542777557,-14.409313260591983,37.47878171836311,26.278667971026433,8.410835542777557,-0.23620035070682113,9.439919639586845,1.9963609484573923,8.410835542777557,0.7489407215615055,0.6818796823770933,-0.26839618523004577,2.1541514635739123,-0.6610621767725964,0.12870170297052577,-1.3058105887576283
2025-04-28 10:55:58.650,8.460741622163663,-0.41598455577704163,4.194629096582588,-1.6602701140669343,8.460741622163663,-1.3565328676522785,-1.4588835154770798,-2.144045811905455,8.460741622163663,-11.203837190641417,40.0052779617844,23.340995372425482,8.460741622163663,0.7245066260353414,9.474309806748693,1.4744699431999597,8.460741622163663,-0.01005001437790071,0.702512917087883,-0.261430404969307,2.232510127913087,-0.6246284433570914,0.18244010775865055,-1.318994329031043
2025-04-28 10:55:58.700,8.51064770246032,-2.417717704795683,3.095164353143354,-0.04232924524795552,8.51064770246032,-1.5318927341025788,-0.929028439073715,-1.7472725322856535,8.51064770246032,-8.400078790838089,42.622667233482765,19.607444631581032,8.51064770246032,1.6154205192450544,9.485136376780362,0.8287416558782482,8.51064770246032,-0.818285689716988,0.7185001123934678,-0.25159627179821203,1.848399644313929,-0.5921158715453702,0.24104885321687788,-1.3213274554454453
2025-04-28 10:55:58.750,8.560553745765974,-4.8287360656451925,0.15319738975622305,1.4859954062304324,8.560553745765974,-1.378996464889717,-0.7215751021761803,-1.2569899250994225,8.560553745765974,-5.656559621815373,44.87228813260318,16.260893267295895,8.560553745765974,2.369784607541313,9.461928006273999,0.23315081190425463,8.560553745765974,-1.5591331882708317,0.7301659132117482,-0.2353621530256696,1.148142722317847,-0.5679477115336283,0.2879182941719156,-1.3092782632522606
2025-04-28 10:55:58.800,8.61045982845282,-5.717312635521912,-1.790274671891092,3.5486226180321254,8.61045982845282,-0.7957857363221271,-1.0796970604426126,-0.469656468962596,8.61045982845282,-4.386194544794408,46.28813277380183,13.57047750121789,8.61045982845282,2.7578754347355394,9.452132480262392,-0.1862400225585566,8.61045982845282,-2.1308450499651492,0.7318611835081601,-0.23184088209022596,0.20338106945271955,-0.5536711051433916,0.3249439450075175,-1.3063054060680581
2025-04-28 10:55:58.850,8.660365897367628,-4.287748446123307,-1.6265456825590694,2.502118644217138,8.660365897367628,-0.612481137549198,-1.465515063724773,0.2825586598236252,8.660365897367628,-4.956679885259609,46.870013285461404,11.330241724827935,8.660365897367628,2.783003026241131,9.447851315500296,-0.41652985381242247,8.660365897367628,-2.4332322579186316,0.7192931690604532,-0.2464996545549625,-0.9059471790233311,-0.5457860484332829,0.3585564276698691,-1.3051360382207964
2025-04-28 10:55:58.900,8.710271910511384,-1.5270941775481466,-2.6317070728010226,1.0275890406800527,8.710271910511384,-0.540014314668858,-0.5591629302202974,0.6561085007025385,8.710271910511384,-6.506661581826393,46.79148279292334,9.249191981317859,8.710271910511384,2.5611676922853857,9.44825422412257,-0.5902709814635745,8.710271910511384,-2.303169628576002,0.6968552027848206,-0.2615289769077292,-1.9799183629918105,-0.548233140591017,0.38204809995793754,-1.3040628125464655
2025-04-28 10:55:58.950,8.760177939931184,0.6818541880367125,-1.2960059246397067,0.8201431808369356,8.760177939931184,-0.3879131414899329,-0.33161887967729015,0.5192364097197308,8.760177939931184,-7.8131514542586515,46.66982666584729,7.958076452153009,8.760177939931184,2.30515532304515,9.481446986884462,-0.7684417039625909,8.760177939931184,-1.829888833843935,0.6815832761091823,-0.2631683912349555,-2.8064679890098843,-0.5585948394343081,0.38881539123331554,-1.3182547430863316
2025-04-28 10:55:59.000,8.810083953530215,2.1010200779402095,0.37084323573689343,1.6367101510891957,8.810083953530215,-0.35507496967043445,-0.6031307258632371,0.43688079869344354,8.810083953530215,-9.306426596474838,46.626170125041085,6.687608454777661,8.810083953530215,2.060870416206373,9.53244915823947,-0.9148227294526062,8.810083953530215,-1.7282760923907703,0.6656680618405928,-0.27137433313344866,-3.3861232575475975,-0.5657301669561827,0.4004616220369894,-1.3391167633662056
2025-04-28 10:55:59.050,8.85998993264225,2.114271804766793,1.8316567994259167,2.4645477556843307,8.85998993264225,0.005881378928195095,0.0052718247289147094,0.08117932837048349,8.85998993264225,-10.36324648557012,46.58711445414948,5.951137089229145,8.85998993264225,1.9153534628992837,9.569509656292178,-0.9854820648134053,8.85998993264225,-1.6591542020445809,0.6571570779424984,-0.27630278962140015,-3.464651824340691,-0.5707963163435293,0.4061915014588602,-1.353994460565165
2025-04-28 10:55:59.100,8.909895941688541,0.9884692220735504,2.6192829346837203,2.4814237868822233,8.909895941688541,0.33860468109309894,-0.2399246857230207,-0.2822987463090811,8.909895941688541,-10.4511102565241,46.57779600770335,6.276908714454506,8.909895941688541,1.9475440600540757,9.583799981505177,-0.9019840885203766,8.909895941688541,-1.9416673544087286,0.6592854299880055,-0.27859631372135685,-2.7781363273090647,-0.5695382601033179,0.4047785624526117,-1.3587976995733702
2025-04-28 10:55:59.150,8.9598019264915,-0.8239754907630584,2.64661762315474,2.045529133579677,8.9598019264915,0.5415432310760869,-0.6815665321472378,-0.14231885397906666,8.9598019264915,-10.423980513708322,46.57817560653876,6.865278301817014,8.9598019264915,2.0074637952553385,9.597040750385734,-0.677540550718392,8.9598019264915,-2.0984315169951513,0.6612011007901063,-0.29075346318796724,-2.0342297828905047,-0.5595116089457833,0.40588059751544464,-1.3663698959485744
2025-04-28 10:55:59.200,9.009707932578513,-2.782409104819631,1.623105589750348,1.353306982086732,9.009707932578513,0.568325814007325,-0.7663420902057148,0.2826341228051625,9.009707932578513,-11.226240834767474,46.18957933545958,7.505144865307237,9.009707932578513,1.895577223713749,9.609197330897523,-0.3827205569219932,9.009707932578513,-1.8768499358855126,0.6578965433772225,-0.31228679106093843,-1.1874800941406611,-0.5506519752740495,0.40493446166317587,-1.374299707334418
2025-04-28 10:55:59.250,9.059613898146146,-5.156444688589932,-0.5561975947561519,1.083835793371796,9.059613898146146,0.562743000550705,-0.5798115162304804,0.794487608382198,9.059613898146146,-13.032387459139201,45.45182946122899,8.3087506985609,9.059613898146146,1.5704242446841168,9.639389698108937,-0.07653526740002142,9.059613898146146,-1.412498430435981,0.6506752620440831,-0.3371826631582772,-0.3562958136951735,-0.5495473790752126,0.3982876536817974,-1.3880574063399305
2025-04-28 10:55:59.300,9.109101111892686,-4.439521310526133,-0.7055586782414306,1.1850041604031127,9.109101111892686,0.733326290162295,0.05344568276321976,1.590619207321212,9.109101111892686,-16.085956514798717,44.10559214345236,9.892691488199326,9.109101111892686,0.9155829344801479,9.686033864735,0.32481061892992397,9.109101111892686,-0.8113696776708811,0.6382762701306076,-0.36511153520101614,0.3666410967720437,-0.5615909654885617,0.3778036260121979,-1.4092970883259246
2025-04-28 10:55:59.350,9.158693027707992,-1.6514871968817504,-0.13944524597350436,-1.5623273246368303,9.158693027707992,0.415809625074581,0.6386296495552121,1.8700433947467283,9.158693027707992,-19.02364048813333,42.08494356595563,12.443185428361545,9.158693027707992,0.15529488374510472,9.677066244082763,0.8273522395864753,9.158693027707992,-0.12376290975413924,0.6235292427643591,-0.3844492629337757,0.9491848971029265,-0.5822164226925907,0.34073982129224867,-1.4073277433960967
2025-04-28 10:55:59.400,9.209215626138207,-0.28786802580890736,-0.6011639046051673,-2.914537673817909,9.209215626138207,0.42955092068735634,1.5169797966738718,1.9855887426814605,9.209215626138207,-21.691744575411622,39.64770743511598,15.044062787391681,9.209215626138207,-0.6514662326591243,9.599061561097784,1.2714094002429361,9.209215626138207,0.6024208474021598,0.6074020800665461,-0.3930114455997351,1.3348536732539071,-0.6107327472448387,0.2957810403128859,-1.3771104583261813
2025-04-28 10:55:59.450,9.260436232517504,1.8696834151847823,0.7205425554355614,-3.5603512762338876,9.260436232517504,0.57389979638281,2.3388552004223992,1.6752234688962226,9.260436232517504,-23.37234695541281,37.00559991156314,18.781372671416356,9.260436232517504,-1.3662062130558663,9.487636468736525,1.779212769725308,9.260436232517504,1.1788357537041496,0.6024009235248055,-0.3840788871089207,1.3658429368423235,-0.6447705633792176,0.23083762499876037,-1.3294833657868443
2025-04-28 10:55:59.500,9.312122137123966,3.9446568304187193,1.2660646990976008,-4.003617582827815,9.312122137123966,0.12211605168375414,2.7206901647827912,1.1538450818066024,9.312122137123966,-23.970376793210104,34.85667226653563,22.5749841294367,9.312122137123966,-1.8757977955627683,9.421881900120853,2.189467268796939,9.312122137123966,2.113123799930221,0.6041483709026084,-0.36508922749519845,0.9768795417323984,-0.6765614170971537,0.1677874901454242,-1.3021102970205412
2025-04-28 10:55:59.550,9.36404070649405,4.549493772170534,2.6902025893298562,-4.47957821308698,9.36404070649405,-0.3302044245955001,2.437592882834954,-0.09086588712231143,9.36404070649405,-22.738679152268684,33.98616736589157,25.48604486283173,9.36404070649405,-1.935585959581686,9.400559074876153,2.311227818220115,9.36404070649405,2.253207852104412,0.6207811234981282,-0.32839128813128304,0.7314902058117092,-0.6999357917494102,0.11807759458140056,-1.2935371617153304
2025-04-28 10:55:59.600,9.415959250027338,3.679611795928409,4.802076511401944,-4.283723682058437,9.415959250027338,-0.5747806464250286,0.7740230009133462,-1.228205841255219,9.415959250027338,-19.82257592972625,34.605482877718075,26.88342119408105,9.415959250027338,-1.4507459478642573,9.400494776923278,2.2597895004737376,9.415959250027338,1.6187835471930487,0.6460386636111124,-0.29528557398684097,1.2937571291333605,-0.6988022449784256,0.10224078362433736,-1.2915187848353156
2025-04-28 10:55:59.650,9.467645068587036,1.9397136199937404,5.259116553458562,-3.5508971440470143,9.467645068587036,-0.8577574112997488,-0.4632024435348178,-1.7932687410776547,9.467645068587036,-16.239544037505503,36.31120044912778,26.441488451835504,9.467645068587036,-0.6287725596213176,9.421226201722797,2.0831691134695176,9.467645068587036,0.8609765514888251,0.6707927264264305,-0.2775253041497053,2.0187043177300446,-0.6736345498526864,0.1213879188871246,-1.3007715054520328
2025-04-28 10:55:59.700,9.5188656088378,0.20265932701556044,4.7767342767466205,-2.500863798437786,9.5188656088378,-1.2756303400912794,-1.3183839379629645,-2.093463081659837,9.5188656088378,-12.859611507673673,38.64252038583713,24.24683536271677,9.5188656088378,0.30917651466075696,9.452843332183928,1.6865083966582521,9.5188656088378,0.12433640265238716,0.6916128591297814,-0.26842783357612,2.1207871011920023,-0.6389338147554166,0.16598244489765127,-1.3137436329411054
2025-04-28 10:55:59.750,9.569388131237277,-2.0431694185747595,3.479357147775893,-0.9868965057399443,9.569388131237277,-1.6335087704978108,-1.688604803063796,-2.104512585641383,9.569388131237277,-9.85634293989704,41.47434064958489,20.484198079853954,9.569388131237277,1.2816284145124304,9.489000064836162,1.0592477472160207,9.569388131237277,-0.659012824171615,0.7074799784257465,-0.26213488561943443,1.7617888594402886,-0.6016989722363983,0.2300540716267828,-1.326487240516307
2025-04-28 10:55:59.800,9.61898003214236,-4.429089241879811,1.0272135303972774,0.8267521429496645,9.61898003214236,-1.6161653839555417,-1.3587849404011607,-1.5318890979066355,9.61898003214236,-7.4595908923027014,44.21894901160048,16.114601117469807,9.61898003214236,2.113430765735353,9.499847400246404,0.34776870708824387,9.61898003214236,-1.3906825088611416,0.7165298666739436,-0.2551928573514396,1.0710002054950036,-0.5705379152178517,0.29638982407428643,-1.3257518537715622
2025-04-28 10:55:59.850,9.66846726387222,-7.317204591616348,-2.040530418295626,3.606816342491655,9.66846726387222,-1.049450733556061,-1.165447209073811,-0.5515757084587528,9.66846726387222,-6.1037943095316285,46.03402283141674,12.629194217850866,9.66846726387222,2.586727747893143,9.490619509845725,-0.18874084674143493,9.66846726387222,-1.9785776619928706,0.7164508724019578,-0.25049385430850735,0.16862781277930547,-0.553179396036327,0.3436194215836156,-1.3211590270862088
2025-04-28 10:55:59.900,9.71837330638114,-5.243894340665839,-1.7119230019971583,3.1780123260881497,9.71837330638114,-0.7674789418290564,-1.55257832954675,0.2186200942053945,9.71837330638114,-6.510273106003712,46.843750910547904,9.98034886357948,9.71837330638114,2.6776250996182482,9.480093575635934,-0.47456805341123737,9.71837330638114,-2.3340151095012827,0.7034608209875759,-0.2636190208561804,-0.8966020136119429,-0.5427342789688779,0.38161306566308373,-1.317886818088699
2025-04-28 10:55:59.950,9.768279327036918,-2.2024399714510783,-2.807703014820341,1.6666986937123345,9.768279327036918,-0.674783286459242,-0.8901252730083099,0.6332855434684502,9.768279327036918,-7.970840390078691,46.85474714088007,7.520561563273985,9.768279327036918,2.505873576763718,9.463694374471215,-0.6815030532566645,9.768279327036918,-2.2763261999334943,0.6790822653059887,-0.2808475633602359,-1.9243992160734493,-0.5415758844512534,0.41057459473476765,-1.3098681920194895
2025-04-28 10:56:00.000,9.81818537796841,0.039104606526511924,-1.1576520279050002,0.9625665590939099,9.81818537796841,-0.4207901918943677,-0.08950170079172377,0.46555387430883083,9.81818537796841,-9.312843575288666,46.69635836372298,5.972729783847352,9.81818537796841,2.2600948404066883,9.481311390886265,-0.8756863160065189,9.81818537796841,-1.677172477217034,0.6613784065381781,-0.28507825184094143,-2.740931747327358,-0.5500149290916964,0.4208013803726141,-1.317652918856454
2025-04-28 10:56:00.050,9.868091413192952,1.5468009237573548,0.39601014807002766,1.4473002202611134,9.868091413192952,-0.4203149632418361,-0.3609553133170098,0.34270995021700107,9.868091413192952,-10.374564374021187,46.680889565350135,4.732090471174345,9.868091413192952,2.062846419432392,9.513877820049313,-1.0605347764769675,9.868091413192952,-1.5882947761013098,0.6480501218587621,-0.287127099699377,-3.108189338178769,-0.5577381562339702,0.4290133998797403,-1.3316234259567277
2025-04-28 10:56:00.100,9.917997428840714,2.00905425039765,1.8269377980654682,2.4777259990997043,9.917997428840714,-0.08811790953913519,0.10153505693087787,0.10259560214264431,9.917997428840714,-11.181252952166677,46.694490844442136,3.871168919987899,9.917997428840714,1.9249122641537975,9.54320636473439,-1.1839194136175246,9.917997428840714,-1.5054036046521069,0.6394183068563086,-0.2888807971573041,-3.3260741178734055,-0.5635836836828888,0.43430858051575144,-1.342780962697752
2025-04-28 10:56:00.150,9.967903458032877,1.365494690296679,2.669626905232972,2.8828028788732962,9.967903458032877,0.2957155338673054,0.09935128155288195,-0.23924820971586275,9.967903458032877,-11.282069080415056,46.69507313975099,4.167703531616505,9.967903458032877,1.9144472380446134,9.558218055087808,-1.1540661350034809,9.967903458032877,-1.4929821275514585,0.6416461758298779,-0.2872415668666393,-2.9862987774760423,-0.5661716476151034,0.4297756219493751,-1.348005139825921
2025-04-28 10:56:00.200,10.01780950350108,-0.1832285144924585,2.8322684740218067,2.632569118343346,10.01780950350108,0.5704781029503677,-0.4734998675979391,-0.37417549999791244,10.01780950350108,-10.947109928442353,46.78348713054535,4.969124341844691,10.01780950350108,2.015369672821712,9.566259478869235,-0.9473964541028481,10.01780950350108,-2.0170576143292864,0.6470974578565828,-0.2938977792460251,-2.4492916029170244,-0.5575529584489309,0.42786452904545236,-1.3508242581093817
2025-04-28 10:56:00.250,10.067715511636827,-2.0605663192042094,2.040905864744251,1.9706259035419877,10.067715511636827,0.626220640408133,-0.6026691180981693,0.01670485660260102,10.067715511636827,-11.093129767571323,46.672213794912885,5.865095039847861,10.067715511636827,2.020229025283813,9.58076858858176,-0.6527839245951844,10.067715511636827,-2.0360172819827347,0.6494105892531901,-0.30980203957509767,-1.6856587879658205,-0.54697565115159,0.42588518109430035,-1.3603441687367972
2025-04-28 10:56:00.300,10.117621564047957,-4.095462387667844,-0.09655782987291196,1.6384996998542525,10.117621564047957,0.6401177770955316,-0.6807837311690802,0.4577839988615975,10.117621564047957,-12.318920229754001,46.161865518921296,6.811142906775857,10.117621564047957,1.8081417838481764,9.6108887083426,-0.34489988820284123,10.117621564047957,-1.7491076602329934,0.6469207721257562,-0.33132794673257765,-0.8806041658766498,-0.5430037228784501,0.41978625967649424,-1.3755004053144557
2025-04-28 10:56:00.350,10.167527614637992,-6.276832381897816,-1.272482990612734,2.0532398235329237,10.167527614637992,0.8318656142775017,0.10868796913218111,1.5470695966815653,10.167527614637992,-14.986703384506157,45.06421013678715,8.355036801780598,10.167527614637992,1.2504235924438263,9.666520716535725,0.03837099530974435,10.167527614637992,-1.2553197683107593,0.6385412392135629,-0.35814635516160653,-0.12016403028216564,-0.5518348713677429,0.4020606119595882,-1.4011051936099874
2025-04-28 10:56:00.400,10.217433647244707,-2.0037337248500164,-0.10079092840537777,-0.7343098867217821,10.217433647244707,0.5296842537073557,0.8457844748641524,1.9629544486159332,10.217433647244707,-17.85859606193778,43.10403522055755,11.241891756924744,10.217433647244707,0.47943911296796204,9.676955080827051,0.5888987388511344,10.217433647244707,-0.6449691936370702,0.6260069408899375,-0.37722596993863916,0.5383644781227307,-0.5726348229856822,0.36126771931174206,-1.409043194344798
2025-04-28 10:56:00.450,10.267339687591079,-0.11640436980587401,-0.7329364229491003,-2.6552564632561126,10.267339687591079,0.39296797085075896,1.4466284078595835,2.026526563977589,10.267339687591079,-20.402446449831142,40.755331570285286,14.16551152298226,10.267339687591079,-0.3363707139158217,9.628399579670049,1.0579449416920268,10.267339687591079,0.08406286940499956,0.6110711958025271,-0.38419074384797175,1.0816390525376478,-0.6020158206573905,0.3125082251551281,-1.391050876808265
2025-04-28 10:56:00.500,10.317245727937452,1.252140610230278,0.7871704588878756,-3.616315398983781,10.317245727937452,0.6138475029549136,2.364341377614545,1.767656714582955,10.317245727937452,-22.573355657404175,38.183860810820136,17.78724829756023,10.317245727937452,-1.1428348078139656,9.539169696894863,1.5387148244416249,10.317245727937452,0.7403221477067509,0.6031075695387659,-0.3791464991966975,1.3287482480961437,-0.6377498295719022,0.25088631041320264,-1.3529953774370636
2025-04-28 10:56:00.550,10.367151766804184,3.745800147231063,0.8759600470752239,-4.314635922789434,10.367151766804184,0.18730924649203204,2.7133928435110057,1.40835452399332,10.367151766804184,-23.492674671519943,35.91651507468777,21.682481003696875,10.367151766804184,-1.7535928800184337,9.462166544888353,1.9701221148529975,10.367151766804184,1.551856271166647,0.6026113237535896,-0.36047988685005167,1.1786310661078037,-0.6727355061846264,0.1846844476140604,-1.3177620281955513
2025-04-28 10:56:00.600,10.417057842206647,5.077817015839198,1.902629683532957,-4.77845434883168,10.417057842206647,-0.2636965766497014,2.6000117315001203,0.3620432790976661,10.417057842206647,-23.050538197764205,34.71338789790947,24.71248910899491,10.417057842206647,-2.0341625568834085,9.439908412951503,2.1399215529081728,10.417057842206647,2.12389023577333,0.6123328992986538,-0.32758089548263825,1.1385303730035985,-0.7026290872391897,0.1295910437153515,-1.3087203218746677
2025-04-28 10:56:00.650,10.46696388767485,4.670311582282216,4.212751617610501,-4.80676425923534,10.46696388767485,-0.5779182374090978,1.29363180398594,-0.8890246170766171,10.46696388767485,-20.815997264657593,34.96206488620438,26.327076411747495,10.46696388767485,-1.7613880660171397,9.43918083116872,2.0971534800294407,10.46696388767485,1.9742495972751586,0.6335322422631178,-0.2924321408037083,1.2877350157747243,-0.7112750729696998,0.10375886046781063,-1.3065969611714885
2025-04-28 10:56:00.700,10.516869891371675,3.065928464987951,5.306958914202266,-4.149818803287277,10.516869891371675,-0.8058701489580977,-0.05376485582692946,-1.7230321679594331,10.516869891371675,-17.329389608601076,36.451042591441855,26.125745311817152,10.516869891371675,-1.022848199694713,9.454618510720174,1.9210587018837797,10.516869891371675,1.0424225593308865,0.6585742616994933,-0.26865816632826717,1.2267538022667157,-0.6926631177803911,0.1136851288463172,-1.311345784146052
2025-04-28 10:56:00.750,10.56677592409221,1.501285624227771,5.082201016531986,-2.9447536908440224,10.56677592409221,-1.168328486766348,-0.9262680268961536,-2.080887461747189,10.56677592409221,-13.682572549317578,38.70067538459272,24.169810439601147,10.56677592409221,-0.08968433155121414,9.48704839802233,1.5335375761753267,10.56677592409221,0.4315147081663518,0.6823110440000618,-0.2536599359243472,0.7881282513230758,-0.6611628342042806,0.1500829050112213,-1.3261591343177024
2025-04-28 10:56:00.800,10.616681988112825,-0.752636026069188,4.056305100663205,-1.2284423285694335,10.616681988112825,-1.4779493945496658,-1.5237126776457985,-2.2703908797040953,10.616681988112825,-10.256968592930532,41.409294757976504,20.725750810672125,10.616681988112825,0.9337244261898349,9.510199611008023,0.9366503259923735,10.616681988112825,-0.3058457392735508,0.7032143558170098,-0.24341322428461795,0.06789629735879582,-0.6236615624832056,0.2068518999456743,-1.3357808968338567
2025-04-28 10:56:00.850,10.6665880253861,-3.4326999503311293,2.3120635749103196,0.6899151122995175,10.6665880253861,-1.5605095008045193,-0.9351604403732564,-1.7209146320924102,10.6665880253861,-7.241562060376165,44.12315355136411,16.640725757803434,10.6665880253861,1.8669003003993228,9.506802478514409,0.2288821473416129,10.6665880253861,-1.0425757906257687,0.7192446059407293,-0.23165414663143352,-0.7730485235171888,-0.5903967200884034,0.2679393745015966,-1.3318670132471837
2025-04-28 10:56:00.900,10.716494064935741,-6.8531743886012855,-1.5407925259010773,3.312829628643559,10.716494064935741,-1.1469481237875303,-0.4866101261688569,-0.783182402833916,10.716494064935741,-4.902078574298434,46.076025660943984,13.487194753082237,10.716494064935741,2.4857517517675176,9.471879948708256,-0.359498185609082,10.716494064935741,-1.681309037901514,0.7278997168564733,-0.21452400525478346,-1.594043395415843,-0.5723188533585657,0.30841335425359523,-1.316531859409809
2025-04-28 10:56:00.950,10.76640011529814,-5.15538263622863,-1.6481504680831436,3.1146126617191774,10.76640011529814,-0.7490920618888539,-1.2101921734971073,-0.1046257045927583,10.76640011529814,-4.387228002303696,47.15335098657864,11.28571857016684,10.76640011529814,2.719126827702095,9.45911594340387,-0.703355029944507,10.76640011529814,-2.1344033670626597,0.7255867621069086,-0.21482960735724996,-2.358385446192627,-0.562567841192885,0.33949920405797834,-1.3109532204030392
2025-04-28 10:56:01.000,10.816306147677219,-2.774490790340817,-1.9794280841978682,1.6651145348432759,10.816306147677219,-0.6841286742742817,-1.2207362170055505,0.5346216724260717,10.816306147677219,-5.653061531973899,47.408765061029584,9.004970075700689,10.816306147677219,2.625960398214504,9.436268334902744,-0.9242719189976593,10.816306147677219,-2.2610632376201205,0.7062142821732956,-0.23153575508066954,-2.9426715904331315,-0.5589253129163416,0.37155374446445716,-1.2992119637681094
2025-04-28 10:56:01.050,10.86621222478696,-0.2818418055077911,-1.7971775334152968,0.6472936219800988,10.86621222478696,-0.3522450936476259,-0.13132297805139265,0.38365748575378517,10.86621222478696,-6.797022814628422,47.33675914133079,7.465363523398819,10.86621222478696,2.436963703941633,9.424753245228281,-1.1092400553677835,10.86621222478696,-1.9411078829241957,0.6890158342720702,-0.23629638969790542,-3.1516022756375373,-0.5647109391754308,0.38539623988773736,-1.2935375562343814
2025-04-28 10:56:01.100,10.916118288579938,1.3167235266546768,-0.2203447797485041,1.2985001219855556,10.916118288579938,-0.361626692397612,-0.9178112602247802,0.40948653183617056,10.916118288579938,-7.9114155020191586,47.334043645970034,6.267032173352379,10.916118288579938,2.2672237834163878,9.444737469564863,-1.2357099040169666,10.916118288579938,-1.6651520200267422,0.6740682327762382,-0.24409591860732274,-2.7253002406759057,-0.5685876756080556,0.3987363752557112,-1.3031323897912765
2025-04-28 10:56:01.150,10.966024291024759,1.885410142139147,1.6673929518544977,2.4627436911390626,10.966024291024759,-0.07415065352689923,-0.3831657200391763,0.23374890866917378,10.966024291024759,-9.117584477493558,47.32580189382569,5.223380989128072,10.966024291024759,2.107342389462281,9.480156935901244,-1.305476411802702,10.966024291024759,-1.5784400108983114,0.6604570562952167,-0.25579421488916043,-2.9944716516366023,-0.5706684085892735,0.4121840190706197,-1.3175382332527492
2025-04-28 10:56:01.200,11.015930326590755,1.2015926448115792,2.6054519275891517,3.087415722030937,11.015930326590755,0.3062015943923899,-0.2059489301590379,-0.06773004488789422,11.015930326590755,-9.63029815744967,47.222319375774084,5.288866262724918,11.015930326590755,2.0446035353669196,9.511897770814551,-1.2459640804356988,11.015930326590755,-1.5540908033034206,0.657687951233979,-0.26154191385195497,-2.9788924561130443,-0.5721123087469372,0.4125903386588526,-1.3293137798450596
2025-04-28 10:56:01.250,11.065836399716847,-0.1477743877792976,2.8307505984788435,3.110655103842025,11.065836399716847,0.5950760066183625,-0.6564073343203357,-0.2578429136816028,11.065836399716847,-9.669979388897259,47.18128948078301,5.925416909953667,11.065836399716847,2.1073383364216465,9.539261823812279,-1.0213609744350107,11.065836399716847,-2.0505950581359453,0.6597569208480646,-0.27375447955163257,-2.4272421655191727,-0.5636558543153785,0.4137004922766829,-1.3410727719134603
2025-04-28 10:56:01.300,11.115742439835584,-2.0987130402114937,2.3770604314792005,2.363869996814082,11.115742439835584,0.6941399611827951,-0.6654904243273627,0.10613141428757404,11.115742439835584,-10.104302715310432,46.86773462540076,6.84896226718433,11.115742439835584,2.097125751326818,9.565695930006456,-0.6875592222224597,11.115742439835584,-2.0677606675333484,0.6609474463659574,-0.29388506648737805,-1.668496782231504,-0.5531075857415838,0.4122856186896237,-1.3574894367687909
2025-04-28 10:56:01.350,11.165648449223331,-4.132230326724048,0.5270359440145388,1.622312921932031,11.165648449223331,0.6074020019361204,-0.49167493912445764,0.6545130135487164,11.165648449223331,-11.64337977696135,46.176563268274805,7.863399749257923,11.165648449223331,1.8376582444798994,9.601578271460905,-0.37586503843060554,11.165648449223331,-1.7951883422546493,0.6571659745789595,-0.31599923082522197,-0.8752508296218895,-0.5519668730529285,0.4044124677132511,-1.3761961846123558
2025-04-28 10:56:01.400,11.215554503000284,-6.571627953313285,-1.55163862577647,1.6439562134487231,11.215554503000284,0.7150349619835286,0.46289104894324723,1.650847309129642,11.215554503000284,-14.584856224504698,44.96072238308577,9.432659108266432,11.215554503000284,1.2181581040621972,9.65607419745915,-0.05614814137193102,11.215554503000284,-1.325532932889377,0.6476349578840955,-0.3376018636538215,-0.12558682248570902,-0.5666933630719826,0.383684293202786,-1.4002851542495236
2025-04-28 10:56:01.450,11.265460533330629,-1.9663588866621617,0.05565017387993836,-1.0247080592728277,11.265460533330629,0.5747138392119432,1.1034298889286895,1.9406200847156516,11.265460533330629,-17.62506355339001,42.98151808518641,12.496868832461514,11.265460533330629,0.387257972774283,9.68878246487817,0.461667936598498,11.265460533330629,-0.7411931694279378,0.6358827929463223,-0.3509056682022377,0.5257110360589434,-0.5934255253789196,0.33734432254563745,-1.4157650105792468
2025-04-28 10:56:01.500,11.315366604066535,-0.11204043006784133,-0.0891444343950534,-3.3217634649609797,11.315366604066535,0.2697487988967307,1.294444270539676,1.9432562780929103,11.315366604066535,-20.18595213278751,40.7082751294117,15.406930122286605,11.315366604066535,-0.4263995056094874,9.653394282589332,0.9257551509686339,11.315366604066535,-0.03783681409987061,0.6206034333869545,-0.35604771316624423,1.046049762548332,-0.6233759052967144,0.28845731025557586,-1.4014974534884748
2025-04-28 10:56:01.550,11.365272714752724,0.9951016853384866,0.6125550087846077,-4.086167606843897,11.365272714752724,0.5395330894104542,2.501743076390882,1.6530256299540824,11.365272714752724,-22.057343297571624,38.31310888614975,18.61800360690746,11.365272714752724,-1.1975734607613653,9.55931221956933,1.3406665132568596,11.365272714752724,0.6227757110184781,0.6104297943001995,-0.3468479710786352,1.2971121940375572,-0.6585231550122866,0.2300835495201734,-1.3611305163751848
2025-04-28 10:56:01.600,11.415178795732292,3.7683215860968606,0.8422388214791701,-4.057278468348323,11.415178795732292,0.33298942529550885,2.4785492547724832,1.3646017778482504,11.415178795732292,-22.697126439234648,36.085820437700406,22.372602947386326,11.415178795732292,-1.7832043766630388,9.476355963637902,1.816135760826906,11.415178795732292,1.4415243632377333,0.6072526600860005,-0.33005523412260745,1.146162767539239,-0.6900679848028959,0.16566410448662416,-1.322284722323818
2025-04-28 10:56:01.650,11.465084906873754,5.145306508099467,1.4808247602363838,-4.43302373696211,11.465084906873754,-0.03515489818332913,2.907124418833046,0.29962351750365446,11.465084906873754,-21.861974585473174,34.73932425403381,25.638651330765654,11.465084906873754,-2.0596214874174676,9.453272239903848,2.0986128569576312,11.465084906873754,1.9964230214613352,0.6156858582410601,-0.2990166815820758,1.0901711917486936,-0.7164483415110853,0.10577206270570394,-1.3111363322773335
2025-04-28 10:56:01.700,11.514991031331979,4.726944279602631,3.2386680324260237,-4.901933199799495,11.514991031331979,-0.5821899496657149,1.5975971927506005,-0.9890942927041835,11.514991031331979,-18.962979723523592,34.847176633181355,27.555563482538037,11.514991031331979,-1.7504632726389768,9.446100189290423,2.1082292039759767,11.514991031331979,1.8505702906419692,0.639682587713407,-0.25947513309501863,1.2608030224633988,-0.7235167333236757,0.07138835989803591,-1.3043593805611324
2025-04-28 10:56:01.750,11.564897125628306,3.124428783679759,5.0296570505622835,-4.514098869832913,11.564897125628306,-0.8328196594848738,-0.11873937930677353,-1.8604764408243122,11.564897125628306,-15.032974719778956,36.2771590226181,27.39758088794351,11.564897125628306,-0.9427678197137119,9.447854738155277,1.9500081592020178,11.564897125628306,0.958268275595227,0.6673355856660842,-0.23481162152533513,1.2426784518657397,-0.7018642892501354,0.07957947878959384,-1.3038770732166924
2025-04-28 10:56:01.800,11.614803208542789,1.0732781366719493,5.368425102412432,-3.936396387511497,11.614803208542789,-1.199942058296595,-1.077002289073245,-2.1213719610637214,11.614803208542789,-11.176049007958216,38.36334531557319,25.594572445173704,11.614803208542789,0.05767096698139364,9.459323562854042,1.6296179462563825,11.614803208542789,0.3582293220233898,0.6937691133830256,-0.22407284300767044,0.8072694410002629,-0.6655961895402306,0.11664654640032478,-1.311443720500381
2025-04-28 10:56:01.850,11.664709261750648,-1.0993505677838808,4.662634294587101,-2.480181907383452,11.664709261750648,-1.6224173755140794,-1.791913063035705,-2.181955789697377,11.664709261750648,-7.942327731472648,40.95761789886556,22.187085053415064,11.664709261750648,1.088389783930281,9.464409226212005,1.062394263947161,11.664709261750648,-0.3747517501274114,0.715223418869402,-0.2190154319881136,0.08000553850762737,-0.6257169570629129,0.17599244927442323,-1.3149533601031442
2025-04-28 10:56:01.900,11.71461534238876,-3.523001401133131,3.1698375499392557,-0.4774226321290595,11.71461534238876,-1.7680799365742719,-1.387589491276825,-1.736985253989006,11.71461534238876,-5.397438465465212,43.62774490320888,17.954191258570575,11.71461534238876,2.012724836708051,9.448000038034357,0.35415505114924906,11.71461534238876,-1.108852170875128,0.7298242983299004,-0.21445278279643898,-0.7795684463083121,-0.5899125091382632,0.24415643482577123,-1.3079977455716252
2025-04-28 10:56:01.950,11.76452137180856,-7.093315208316527,-0.3121333835241642,2.0675318692023095,11.76452137180856,-1.4392521158691167,-1.0928873481797754,-0.9041112846427886,11.76452137180856,-3.35336869246477,45.71159138712861,14.365464828953634,11.76452137180856,2.6940022051913064,9.41014867614231,-0.2586739120991074,11.76452137180856,-1.7346627284719218,0.7374212819929716,-0.205190713147794,-1.6180167750800922,-0.5660436778716759,0.2967858990667332,-1.2919172451141197
2025-04-28 10:56:02.000,11.814427430934979,-5.7482126180011495,-0.9371493092518847,3.6064305457817656,11.814427430934979,-0.8943241226059212,-1.7786352543928867,-0.18226662258723997,11.814427430934979,-3.2646433654642966,46.90551483225445,11.633729044596382,11.814427430934979,2.9610645967413136,9.397009941348317,-0.6251391285962008,11.814427430934979,-2.181907591739467,0.7330219031391182,-0.21352278991896043,-2.406595984400234,-0.5518150452193521,0.33980521350737336,-1.2868707887442126
2025-04-28 10:56:02.050,11.864333496207598,-3.4678622916877115,-1.2763918111160382,2.9150024458162402,11.864333496207598,-0.7433124413015882,-1.580238399944665,0.49769047142325706,11.864333496207598,-4.760907402127507,47.27191755388178,9.101843083877409,11.864333496207598,2.885767636710045,9.379690469465483,-0.8427567622934083,11.864333496207598,-2.3166740545107283,0.7128942589515033,-0.2348037187669026,-3.0156316544091486,-0.5457795360359,0.3785735177639494,-1.2785072239891622
2025-04-28 10:56:02.100,11.914239565350044,-0.6862783260355123,-2.2483207210830822,2.1289875750887757,11.914239565350044,-0.39542183517880125,-0.5718351410054952,0.6516545278486966,11.914239565350044,-6.493341775818599,47.13414746264489,7.206734738650039,11.914239565350044,2.6312081578208897,9.388171650183612,-0.9867357014422241,11.914239565350044,-1.9715585495318892,0.6888687680070187,-0.25082980966218604,-3.2303492884892093,-0.5496925819044202,0.4010928344777154,-1.2803908436123932
2025-04-28 10:56:02.150,11.964145661695106,1.036575104496684,-0.8417693198721545,1.730449383913892,11.964145661695106,-0.2630580498427723,-0.38930568384540765,0.40202821931500077,11.964145661695106,-7.705935384399149,47.0086557668407,6.255968178346734,11.964145661695106,2.404352473151397,9.427615449176368,-1.087432929214213,11.964145661695106,-1.716343428320099,0.6745578380204034,-0.2561023611212933,-2.810153670148313,-0.5572437919126462,0.4076857499369609,-1.2962999078596418
2025-04-28 10:56:02.200,12.014051710008772,1.8653708927648989,0.7721089748995797,2.2613404742323313,12.014051710008772,-0.17983993298237397,-0.35388818304716657,0.28800272271905536,12.014051710008772,-8.744239967186157,47.00580008980289,5.359965931285524,12.014051710008772,2.239526022034885,9.469560980329138,-1.1819767225230728,12.014051710008772,-1.6395425346237809,0.6631434255372733,-0.26252539798717234,-2.967914736961048,-0.5618909789772633,0.41635190127485605,-1.311197928392837
2025-04-28 10:56:02.250,12.063957755249337,1.5549995166866528,2.1606036245591063,2.8332438402199673,12.063957755249337,0.28372419268796006,0.077077482748421,0.028068614646896573,12.063957755249337,-9.3167265494109,46.92509620506458,5.330007827865506,12.063957755249337,2.1495545225477115,9.504018071296041,-1.162545141015326,12.063957755249337,-1.61828073048917,0.6598218210723337,-0.26623607849105185,-3.0828868111411234,-0.5653014620509194,0.4160894538431008,-1.3242140840166339
2025-04-28 10:56:02.300,12.1138638441962,0.2452003268086561,2.6488375509078823,2.5787398127015755,12.1138638441962,0.5788899139902788,-0.16342491119544292,-0.2523191045804742,12.1138638441962,-9.235364936170622,46.845016828061375,6.284204407449662,12.1138638441962,2.1862135909956555,9.52404454607383,-0.9573103447496767,12.1138638441962,-1.9591641570373286,0.6647125101352191,-0.27191535694414853,-2.666685028929015,-0.5617311722495064,0.4100065939670237,-1.3313094491691215
2025-04-28 10:56:02.350,12.16376994122417,-1.545108826968848,2.442997440413072,2.1192356444977944,12.16376994122417,0.7364657068070443,-0.3839366922263576,-0.06885810349058456,12.16376994122417,-9.312348514725857,46.73238253649032,7.481475019121522,12.16376994122417,2.214754390560321,9.543478111277192,-0.6480794964516317,12.16376994122417,-2.1756603527389355,0.6698034000074087,-0.2843357232501838,-1.897400341496088,-0.5532888263851435,0.4039703207263615,-1.3419620878568934
2025-04-28 10:56:02.400,12.213676020268824,-3.6418319058032256,1.0350126037731175,1.4699663525645297,12.213676020268824,0.7596252128942118,-0.37913311972415353,0.43701501778719976,12.213676020268824,-10.365318045805132,46.28514828270699,8.766981225358322,12.213676020268824,2.051810523255635,9.567630183790566,-0.2932090999805886,12.213676020268824,-1.9911423845609033,0.669632403277417,-0.30388732776391936,-1.0260816579404177,-0.548604147662961,0.3948557126748871,-1.3559491958476677
2025-04-28 10:56:02.450,12.263582121963353,-6.175178742102702,-1.2544367789856459,1.2890805084050603,12.263582121963353,0.7858482247463823,-0.430198979691228,1.0591219612230118,12.263582121963353,-12.656365170067593,45.41107847840647,10.219184253043531,12.263582121963353,1.626131970032383,9.619442980457357,0.07227760595952303,12.263582121963353,-1.5372556009247076,0.6634676775151286,-0.32906347980733786,-0.17741983715127482,-0.5528945793833908,0.380751557661457,-1.380341968504807
2025-04-28 10:56:02.500,12.313488210796395,-2.9601901339749905,-0.1879137443854054,0.16070056071122363,12.313488210796395,0.6951018470602175,0.14991304054335305,1.664580375831448,12.313488210796395,-16.019776827583264,43.935571559381486,12.278804517625959,12.313488210796395,0.9118253453224553,9.679934642055349,0.5233844206286422,12.313488210796395,-0.9399763072676058,0.6508584071959266,-0.3572627805510909,0.5341878936396925,-0.5681063257636148,0.35594724360474234,-1.4077209773129997
2025-04-28 10:56:02.550,12.363394255923144,-0.5517371122353931,-0.2349280597024912,-2.164891772995261,12.363394255923144,0.2787589140407886,1.0381209568500476,1.8437055964865237,12.363394255923144,-18.815657004331978,41.98223808662052,14.603581639714488,12.363394255923144,0.14206411752093265,9.67241595933367,0.9515524647150302,12.363394255923144,-0.2252047417972161,0.6341867906717926,-0.37004682431492436,1.1109178892269056,-0.5924276098999909,0.3178751438845021,-1.4060484782413294
2025-04-28 10:56:02.600,12.41330033542307,0.5075780695813007,-0.3458378566411086,-3.147173707217618,12.41330033542307,0.3591158313516076,1.5382249622599269,1.749361451807282,12.41330033542307,-20.94097959433963,39.9052302007076,17.101470982833938,12.41330033542307,-0.5874550498573168,9.625485993114056,1.307996378222698,12.41330033542307,0.5303403544177733,0.6210038461105399,-0.3695119927860366,1.468240828059,-0.622152803005587,0.27194547556257975,-1.3866581824603583
2025-04-28 10:56:02.650,12.463206361883591,2.068605586454119,0.7843140009670927,-3.6323481272519924,12.463206361883591,0.4144711563582944,2.0479005293160872,1.4706056927936515,12.463206361883591,-22.577913966323447,37.72997965779347,20.17981165461334,12.463206361883591,-1.2583995957629799,9.546789948810638,1.7037294576202104,12.463206361883591,1.1323107662621954,0.6139095636948536,-0.36200753991146817,1.4027220133773155,-0.6535330443220486,0.21825049641113764,-1.350682316018226
2025-04-28 10:56:02.700,12.513112367060055,3.941010698957719,0.81823660784311,-4.0025186959476216,12.513112367060055,0.12690349147765823,2.7228324398007704,1.0231103640614159,12.513112367060055,-22.928176766064396,36.01281285852828,23.305620719002736,12.513112367060055,-1.7310954517475183,9.4987716633284,2.0158600984900046,12.513112367060055,1.9755934225026373,0.6141436999408999,-0.340902069750994,0.8894273360892497,-0.6839793966348401,0.16126796672710578,-1.328252864902169
2025-04-28 10:56:02.750,12.56301839898386,4.812687598188367,1.9427128835269725,-4.430756634256,12.56301839898386,-0.27768852117130627,2.2915851193907923,-0.12536193313368033,12.56301839898386,-21.524309470436844,35.404632966724115,25.78678396087155,12.56301839898386,-1.805533508633466,9.494515445524549,2.1039791542054562,12.56301839898386,2.242242169636147,0.6286131298988915,-0.30452979761813215,0.7395338847618533,-0.7064654346397118,0.11335920075256382,-1.324882270757398
2025-04-28 10:56:02.800,12.612924441492783,4.1311567234471935,3.976964905879731,-4.286309948721089,12.612924441492783,-0.6203564225350867,0.580328876295048,-1.285607263643845,12.612924441492783,-18.52756033944088,36.13958819907315,26.622964840335513,12.612924441492783,-1.3311929387427457,9.4909668403827,2.0343178392237435,12.612924441492783,1.709423579668183,0.6510805796348876,-0.27463563546225805,1.1832465478842875,-0.7025326981962631,0.10105774683657097,-1.3206060947202425
2025-04-28 10:56:02.850,12.662830511090505,2.295021903118784,4.9865765285946635,-3.6152622365668483,12.662830511090505,-0.8119951196747586,-0.5261123851150077,-1.8766421808463967,12.662830511090505,-14.862575162874272,37.792965392355136,25.882141006576493,12.662830511090505,-0.49667286417066253,9.485175954771137,1.8608272434729054,12.662830511090505,1.0231087352829726,0.6755410617973486,-0.25885977407190636,2.0329577973055586,-0.675434113445753,0.12133177805093864,-1.3199919338798125
2025-04-28 10:56:02.900,12.712736594801715,0.39962723260817173,4.6442278959390135,-2.7748945625209473,12.712736594801715,-1.1753609077397131,-1.2524060610942314,-2.125801309543756,12.712736594801715,-11.309419204249554,39.96300570970381,23.686866692674247,12.712736594801715,0.4729386029010261,9.477253952218078,1.509093392362462,12.712736594801715,0.33232583288579565,0.6982658303727204,-0.2510356008079615,2.2402195870176045,-0.6386339996014769,0.16404077782954835,-1.3194902647588815
2025-04-28 10:56:02.950,12.762642718007937,-1.9123778156513582,3.566859656095251,-1.407956347312149,12.762642718007937,-1.50969640613992,-1.60872562085485,-2.0695305111099493,12.762642718007937,-8.13023631845045,42.490597868521554,20.24754228214011,12.762642718007937,1.4541662478625292,9.467881946787355,0.9426737892765779,12.762642718007937,-0.43704821325480875,0.7166413849751061,-0.24534589752871144,1.9601942490059223,-0.6005291801027487,0.22337045142407988,-1.317199306236938
2025-04-28 10:56:03.000,12.812548825734845,-3.9052599777307266,1.6814475163627658,0.30030838304328783,12.812548825734845,-1.543309973911462,-0.8977361390909901,-1.4159459551488083,12.812548825734845,-5.490568915947347,44.78326319269934,16.47104367698549,12.812548825734845,2.268639137298589,9.438672290857092,0.28858945861698915,12.812548825734845,-1.1913266654912358,0.7283449960867543,-0.23559692374643545,1.3226331012421109,-0.571179480624346,0.28141281344740204,-1.304168763046591
2025-04-28 10:56:03.050,12.862454924128638,-7.0980016135889805,-1.4857666685425814,2.5573971594422673,12.862454924128638,-1.1130391731992877,-0.8563494663885304,-0.5372722934549449,12.862454924128638,-3.608973256357909,46.39946391499137,13.41345646642586,12.862454924128638,2.774413361883735,9.405509757823305,-0.23118806218623617,12.862454924128638,-1.8281316031174975,0.7320287410311886,-0.22485772760872844,0.4499271533322333,-0.5552713405438421,0.32179982153141373,-1.2902282689582756
2025-04-28 10:56:03.100,12.912361064749085,-5.4006217387751745,-1.6694398224326712,2.598195763194299,12.912361064749085,-0.7999176693573345,-1.744982414679185,0.16602878002992646,12.912361064749085,-3.7798529849463773,47.21424616033392,10.987036203949074,12.912361064749085,2.917904597394517,9.404337828222575,-0.5238754558594224,12.912361064749085,-2.2512807211487833,0.7230582417211475,-0.23518064045847245,-0.6169036070793362,-0.544605083471265,0.35850941255979135,-1.2900843428185962
2025-04-28 10:56:03.150,12.962267136623176,-2.824785420429969,-2.0722392113267145,1.8747605153481535,12.962267136623176,-0.6066119448162439,-1.3102831175815701,0.7759852264067807,12.962267136623176,-5.732326246141567,47.2267299554288,8.55658252778311,12.962267136623176,2.69638104572861,9.408843355921308,-0.7215653741941388,12.962267136623176,-2.3106965950998575,0.6968474675065969,-0.2589349401107893,-1.7204061365653542,-0.5428517173664522,0.39296503357389445,-1.290223693068031
2025-04-28 10:56:03.200,13.012173237520974,-0.04015354590904308,-1.2663086875270009,1.1999634341052194,13.012173237520974,-0.3084116654645329,-0.2776870811418888,0.7017330250401059,13.012173237520974,-7.679745220193237,46.97685515574931,6.930417161777043,13.012173237520974,2.3636014146261735,9.455054144938147,-0.8481312069367217,13.012173237520974,-1.852830513542938,0.6742755135008359,-0.2712631059674073,-2.6360829836498922,-0.5513219908780413,0.40561549849517087,-1.308785290883986
2025-04-28 10:56:03.250,13.062079336711498,1.8044064691812687,0.12662941878415857,1.756945700370845,13.062079336711498,-0.37494575565329263,-0.5750463121403502,0.4908287231912437,13.062079336711498,-9.158175545361237,46.90418179029641,5.730944368944871,13.062079336711498,2.0959148384127793,9.515513186399634,-0.9849955987183425,13.062079336711498,-1.6654368213917747,0.6581069834850994,-0.2780806271340698,-3.120408459085137,-0.5601109877256547,0.414102016672079,-1.332342973308094
2025-04-28 10:56:03.300,13.11198538900881,2.3001107696294505,1.7648678464315235,2.9932681185828662,13.11198538900881,-0.09459862544848276,-0.2729176461344945,0.18684266108350917,13.11198538900881,-10.290277626019838,46.89271866235989,4.683626956539565,13.11198538900881,1.9331523047604673,9.560564265184533,-1.0783755890420375,13.11198538900881,-1.576577679851448,0.646584860822403,-0.28549727284444687,-3.5844906705974253,-0.5649570391993509,0.4234577164969302,-1.3492274119985943
2025-04-28 10:56:03.350,13.161891502426641,1.4484636902359511,2.6040202037601192,3.358730652269131,13.161891502426641,0.35132272344273724,-0.5442378571869204,-0.2690025105073814,13.161891502426641,-10.583805110904747,46.865516602131706,4.717214389614303,13.161891502426641,1.9425781659498293,9.57863951705812,-0.9916950971234039,13.161891502426641,-1.6500842961538176,0.6452412861178984,-0.2926173592515529,-3.0143644859449528,-0.5625896442248542,0.426635507284446,-1.355817851120269
2025-04-28 10:56:03.400,13.21179762142158,-0.03750891081845557,2.6746725164425396,2.7065098664793767,13.21179762142158,0.5840329291054772,-0.8125683870257739,-0.2300424516079454,13.21179762142158,-10.482989302770823,46.91154426628071,5.191180291876105,13.21179762142158,2.0247271696246663,9.588800177407698,-0.737738663785829,13.21179762142158,-2.056691531199396,0.6461942971503429,-0.30764778015011873,-2.412861614087764,-0.5497467956797815,0.43051533393452085,-1.3608885161870068
2025-04-28 10:56:03.450,13.261703742806704,-1.7134254185711653,1.9980162980391114,1.876501272272549,13.261703742806704,0.6166200623867099,-0.8179755428818993,0.14439751101801063,13.261703742806704,-10.904119076317588,46.72634998668335,5.848793787389384,13.261703742806704,1.9696180064003455,9.599396755107298,-0.428231910944256,13.261703742806704,-1.998715896836355,0.6443124763860508,-0.32884716555710825,-1.6150634794876555,-0.5378409214127132,0.4309996833016164,-1.3683785881328625
2025-04-28 10:56:03.500,13.311609864533287,-3.6292402478680312,0.14353031222549797,1.2487521056340132,13.311609864533287,0.570662916350855,-0.47797314561078663,0.6138045432250137,13.311609864533287,-12.23221550788082,46.11956664754528,6.655798709753804,13.311609864533287,1.701264099679013,9.618718388047595,-0.1254582925073047,13.311609864533287,-1.6441734017673588,0.6392960173366817,-0.35128112096891734,-0.773098518231665,-0.5347567818701026,0.42427638839668375,-1.3786087011409744
2025-04-28 10:56:03.550,13.361515967479818,-6.155583674523109,-1.5023576160499887,0.9895243208043992,13.361515967479818,0.6637363107744751,0.17736723768787538,1.5681335035728934,13.361515967479818,-14.632071612876093,45.087358466728695,8.041611941322044,13.361515967479818,1.1544422264348397,9.66036657904643,0.22889729929553448,13.361515967479818,-1.0991732909529752,0.6313290206881869,-0.3740773886393848,0.017847938585110325,-0.5445288251239018,0.4046101286172564,-1.3971423762127246
2025-04-28 10:56:03.600,13.411422053239761,-1.844689939318647,-0.3588083385123082,-1.129319849491052,13.411422053239761,0.5007565275294878,0.7901580528015321,1.8948654986258062,13.411422053239761,-17.622960323164836,43.25562775440716,10.66552424219663,13.411422053239761,0.3961518258243808,9.67336456723699,0.7371411986032401,13.411422053239761,-0.4585264962459306,0.6201406457841381,-0.3920109318127753,0.6782935730654482,-0.5656165358639825,0.3648490036166158,-1.4052054034727877
2025-04-28 10:56:03.650,13.461328117943289,-0.1354160861745847,-0.6231958482802235,-2.872644307542276,13.461328117943289,0.3569727109124271,1.252111051730068,1.9579912386435223,13.461328117943289,-20.270860109129202,41.02768021163417,13.449572199041226,13.461328117943289,-0.38598548058614507,9.631509692295507,1.1869881384085317,13.461328117943289,0.28540952593614677,0.6068693656171458,-0.400094222850942,1.2026407841644784,-0.5936315857386314,0.3184342054473692,-1.389265175821772
2025-04-28 10:56:03.700,13.5112341702406,0.911439842338221,0.6474008329685724,-3.4993370967231705,13.5112341702406,0.6124425768200974,2.2741811886429844,1.7055382193611122,13.5112341702406,-22.695523206448556,38.56200331041039,16.627502185314725,13.5112341702406,-1.1658985034361604,9.548048941107432,1.6339371755953858,13.5112341702406,0.9556113618068562,0.5990777654774201,-0.3982763047807809,1.4227011159228644,-0.6276071551432975,0.26175645944231346,-1.3541675734858398
2025-04-28 10:56:03.750,13.56114020569278,3.2909409004133425,0.7993913264523651,-4.025906486061158,13.56114020569278,0.28352610723469435,2.7255395527903086,1.3403099461591084,13.56114020569278,-23.814009702455802,36.283150853866275,20.498740584366857,13.56114020569278,-1.7413287340080705,9.462967738278623,2.0439399562790506,13.56114020569278,1.7413270200528257,0.6015853553251508,-0.380303150407253,1.2160379973168136,-0.6623215294720223,0.19713396210213488,-1.315391132252453
2025-04-28 10:56:03.800,13.611046228738743,4.833954436727453,1.4686324917338065,-4.186041110311406,13.611046228738743,-0.1222675997294957,2.52373317261607,0.34630243473953387,13.611046228738743,-23.747520549925394,34.90663978558885,23.720633126639044,13.611046228738743,-2.0184973930628485,9.440780253101634,2.213329110569919,13.611046228738743,2.2281978636375523,0.6131879647667781,-0.34877853661394703,0.6392682338415251,-0.6932973303882108,0.14239531071079273,-1.3066581147580179
2025-04-28 10:56:03.850,13.660952344546764,4.567308749946965,3.5133685354880746,-4.468106201443842,13.660952344546764,-0.5012052263031207,0.7458942586725428,-0.9901096966022125,13.660952344546764,-21.922736812138112,34.997576022203795,25.39888335541418,13.660952344546764,-1.7335208210032396,9.439608527606683,2.1849671353042615,13.660952344546764,1.9673102902175434,0.6327647345425015,-0.3188954012582689,1.108887356814425,-0.6998046057267265,0.12239292795920974,-1.304254064642188
2025-04-28 10:56:03.900,13.710858446582748,2.8934679158719923,5.15767054060749,-4.086612955519328,13.710858446582748,-0.685243818796044,-0.3858810041664234,-1.7685567757813845,13.710858446582748,-18.766901780064057,36.39741765802566,25.187539132213875,13.710858446582748,-0.991205110194078,9.442335032004909,2.050325039244617,13.710858446582748,1.117584866481966,0.6541320038038492,-0.3025041271993494,1.8068378862331458,-0.6771902595723293,0.1393807778876348,-1.3056097116761305
2025-04-28 10:56:03.950,13.76076458458537,1.3252242755715198,5.257724579025559,-2.7823407624760073,13.76076458458537,-1.0824313857199734,-0.9995900623443928,-2.1401850669395173,13.76076458458537,-15.153601415674206,38.476759121412535,23.377306815905506,13.76076458458537,-0.05322286181383832,9.451885267288695,1.6964447136932812,13.76076458458537,0.4741631036508137,0.6753167498590998,-0.2904705067492759,1.9255682778738377,-0.6434829472277926,0.17893639461315725,-1.3116966258715417
2025-04-28 10:56:04.000,13.81067072053926,-0.7124386628868943,4.480384120950588,-1.169365472817534,13.81067072053926,-1.4273817271167895,-1.307672417516409,-2.260120468657895,13.81067072053926,-11.568627723391545,41.08736758643385,20.12100018410143,13.81067072053926,0.9724512675450057,9.459743465666811,1.1179182909618344,13.81067072053926,-0.2795395502339972,0.6947876700502992,-0.27785249695995506,1.5885354510684517,-0.6064728715177132,0.23467353355965492,-1.3160389919245785
2025-04-28 10:56:04.050,13.860576833729455,-3.127727152684346,2.740636680437626,0.43286748581497647,13.860576833729455,-1.5501931033255723,-0.8364027789696239,-1.8091109961757617,13.860576833729455,-8.202237166113528,43.80610223516729,16.173045430928163,13.860576833729455,1.9313542028834836,9.454697203171781,0.4201961731886073,13.860576833729455,-1.0280758740181597,0.7103549896341482,-0.2620126713156888,0.9341906282151499,-0.5738098024249891,0.2939290612057552,-1.312420493572593
2025-04-28 10:56:04.100,13.910482949537476,-6.390746243726482,-0.8074425928194017,2.629020315635823,13.910482949537476,-1.2120531819604523,-0.38560736954802766,-0.9404174135628859,13.910482949537476,-5.428648095475501,45.89947307737846,12.776961590248975,13.910482949537476,2.6095474844421647,9.42506366204978,-0.20478197166999862,13.910482949537476,-1.6761294719781716,0.7197924149691998,-0.2413593524739032,0.09178226990943228,-0.5552192669199055,0.33602076290780386,-1.2985568228621776
2025-04-28 10:56:04.150,13.960389103360866,-5.288777024757541,-1.6124557126470533,3.2641415185706406,13.960389103360866,-0.7335274387915183,-1.017886381971029,-0.1786205764139175,13.960389103360866,-4.428308660333817,47.06391965781626,10.32075087184953,13.960389103360866,2.878732685467405,9.414930081277703,-0.5971865605424731,13.960389103360866,-2.1204872890685573,0.7179844502830244,-0.23709168460151497,-0.8764125534445548,-0.546031556349291,0.3667350725837831,-1.2947189524494334
2025-04-28 10:56:04.200,14.010295221445256,-3.2389270704546784,-1.6966344373860676,2.247582253108081,14.010295221445256,-0.5748858646044657,-1.2083826743986807,0.523343183864387,14.010295221445256,-5.290306870253782,47.32561119097386,8.040986978313049,14.010295221445256,2.7862116928295544,9.403325324855347,-0.8323989173068571,14.010295221445256,-2.241021344711936,0.6998025866645072,-0.25041156273119364,-1.868772146652446,-0.5431452892091206,0.3949346735743413,-1.2883012346537945
2025-04-28 10:56:04.250,14.06020132279833,-0.4406794328937121,-2.4478361049857753,0.7800627983848994,14.06020132279833,-0.40027828457350734,-0.376307626293934,0.7373604365379194,14.06020132279833,-6.834734196874106,47.021307614911244,6.1300250784778525,14.06020132279833,2.5131156533720316,9.415251473758014,-0.9978537123274561,14.06020132279833,-1.8923380261870224,0.6764257237212877,-0.2624701331013259,-2.6956337045886216,-0.5489186579990721,0.4115251945594378,-1.290933765307583
2025-04-28 10:56:04.300,14.110107459321313,1.461868286704463,-0.9606521594337325,0.7008468867677389,14.110107459321313,-0.39111745767382294,-0.7998352962669814,0.5830250107776606,14.110107459321313,-8.268946422230135,46.78365457174673,4.964565229082453,14.110107459321313,2.2384077071935407,9.464017147186196,-1.1388046264376492,14.110107459321313,-1.621729898433559,0.6595097849593864,-0.2690602494161161,-3.099103721859335,-0.5582473361947705,0.4196174705728555,-1.3108379279690037
2025-04-28 10:56:04.350,14.160013623388366,2.2427672596110972,0.9294066889729002,1.7372671437857214,14.160013623388366,-0.26825843789117665,-0.8660143346197944,0.41215775514972475,14.160013623388366,-9.837399050127956,46.699452362416345,3.443948371371475,14.160013623388366,2.0168867200705876,9.515387194545717,-1.2491651901701033,14.160013623388366,-1.4971567346190846,0.6402785000158371,-0.2842989455025642,-3.1059009912828266,-0.5610711448094707,0.43708266952228825,-1.3298295756227698
2025-04-28 10:56:04.400,14.209919766057546,1.6475418573514975,2.1307229173341593,2.648882630796102,14.209919766057546,0.16900842325253962,-0.16773289135355524,0.09018021386055977,14.209919766057546,-10.719822034858073,46.61979981891493,2.938890114808701,14.209919766057546,1.916711966641493,9.549047252174176,-1.229936273073889,14.209919766057546,-1.4334588754015283,0.6330136475801159,-0.2933722232022512,-3.0117490278202608,-0.5626097479912691,0.4426237952252899,-1.3429585747802109
2025-04-28 10:56:04.450,14.259825866272434,0.5347935430757034,2.563799041612396,3.2252224742916957,14.259825866272434,0.43902071833020156,-0.5469777529247308,-0.10910152621254672,14.259825866272434,-10.87484075372872,46.56879470220546,3.3269438985900246,14.259825866272434,1.9305728721499404,9.574250616055362,-1.0813624934073425,14.259825866272434,-1.8189806985025625,0.6331998939802125,-0.30189111191831175,-2.652882304067316,-0.5584175469466499,0.4433863549517561,-1.3543942460848162
2025-04-28 10:56:04.500,14.309731966601142,-1.2788980461979944,2.35617599792427,2.792869378282157,14.309731966601142,0.664577315699111,-0.8210304237346429,0.08050444270972627,14.309731966601142,-11.194265121068737,46.48315177864139,3.875694975597329,14.309731966601142,1.90758283054559,9.595947075594578,-0.7989171537179501,14.309731966601142,-1.9138585156197738,0.6319531425619528,-0.3202948075555191,-1.9891593957672722,-0.5474806769375047,0.44423400732926854,-1.3686197382521041
2025-04-28 10:56:04.550,14.359638140115129,-3.3572774291391116,0.8307262838082039,2.0155238479128927,14.359638140115129,0.6927128187903939,-0.5957505071843991,0.4985969327728868,14.359638140115129,-12.2480573249586,46.013313076490675,4.649616325040531,14.359638140115129,1.7083010270443615,9.6189176677738,-0.46092518757546896,14.359638140115129,-1.6649930869081886,0.6272181823323056,-0.34500182296610893,-1.2180443482369696,-0.5395601197516551,0.44018983009367885,-1.3835425053774268
2025-04-28 10:56:04.600,14.409544351758305,-5.692343465538958,-1.3334892061489563,1.661208765375624,14.409544351758305,0.7252386564419282,-0.41609380835871435,1.0118273769746318,14.409544351758305,-14.302598610902479,45.2150556799972,5.7516898557578635,14.409544351758305,1.2844672158825106,9.667103349970077,-0.11724490035904792,14.409544351758305,-1.1912200725616207,0.620518275548149,-0.37122637249708645,-0.4425487716536067,-0.5413943913942288,0.42768526380634836,-1.4079814294577373
2025-04-28 10:56:04.650,14.45903184094555,-3.1117255228371015,-0.24160337898148587,0.056898322920986094,14.45903184094555,0.5955260674462675,0.3178560741384691,1.5705388637072941,14.45903184094555,-17.497917207304457,43.974308481638914,7.4837999463915175,14.45903184094555,0.6079416970036624,9.726896525077668,0.2864612801370321,14.45903184094555,-0.5987940775541171,0.6102236335853627,-0.3981857989830313,0.23499112541503092,-0.5544302176290868,0.40416856332077933,-1.4358535865997242
2025-04-28 10:56:04.700,14.50862399498292,-0.8396223963738538,-0.1239899896171978,-2.0156082821679835,14.50862399498292,0.29420969061084634,1.1542700103247492,1.723367382433174,14.50862399498292,-20.160281521457108,42.17650978070605,10.026293895516943,14.50862399498292,-0.11584983217320238,9.716278800902124,0.7178877282320498,14.50862399498292,0.07147843412442845,0.5987402536588742,-0.40846683147847856,0.8058954586359298,-0.5776434783120861,0.3631482724241203,-1.4323946628027335
2025-04-28 10:56:04.750,14.559146781668888,-0.17018258775192535,-0.25848128767776873,-3.2119349207923054,14.559146781668888,0.39614493411870966,1.9509742057748425,1.7621798232811452,14.559146781668888,-22.406046072864363,40.06174970862481,12.844524262020022,14.559146781668888,-0.8394082780377471,9.644575451961405,1.1136806622431492,14.559146781668888,0.7455416422787283,0.5894973229756068,-0.40791569470880634,1.1759612870289051,-0.607487652841717,0.314092369458388,-1.4018753301374054
2025-04-28 10:56:04.800,14.610367560824628,2.161701500320323,0.5752146751691549,-3.6971262203382462,14.610367560824628,0.3564456782627226,2.6940944317489546,1.5617849143026632,14.610367560824628,-23.876240905904048,37.76731151234029,16.755937867064617,14.610367560824628,-1.4943674224826506,9.543311394870331,1.567054482021362,14.610367560824628,1.350434539938619,0.5895958546392606,-0.3920509987867623,1.187983045338565,-0.6433668950490787,0.24833275757584455,-1.3539487823332794
2025-04-28 10:56:04.850,14.662053637524622,4.395912759994139,0.7993580980860886,-3.819848166766382,14.662053637524622,0.007091957388015971,3.121016230420293,0.9700867790998025,14.662053637524622,-24.269731499376334,35.93787709482908,20.58474775549976,14.662053637524622,-1.954152650994553,9.486386202574908,1.8948040437394198,14.662053637524622,2.0955846454147946,0.5958532873807516,-0.36356682873592455,0.9401322023161435,-0.6786993705463883,0.18315579066677593,-1.3274337269518985
2025-04-28 10:56:04.900,14.71397236066346,4.8448796213557275,2.21371659447505,-4.438751187903312,14.71397236066346,-0.4388832341598845,2.4341374982320696,-0.24596914183333995,14.71397236066346,-22.856772298746233,35.31176405686607,23.741027104067324,14.71397236066346,-1.942731520031803,9.467438853352473,2.0023052723232015,14.71397236066346,2.0814995372891385,0.6170904646238157,-0.32246797425525753,1.149847565405016,-0.7027012422684781,0.1335601546331061,-1.3169137232672674
2025-04-28 10:56:04.950,14.765890995820623,3.855895483937855,4.4713781398571335,-4.18391678153911,14.765890995820623,-0.6562157360754385,0.7876147888739783,-1.256015051814507,14.765890995820623,-19.858308492451606,36.026440017095624,25.10163079108398,14.765890995820623,-1.4249721531031376,9.46335007745297,1.9400993904154737,14.765890995820623,1.3081324930719884,0.6426044430751158,-0.2893242096368261,1.3283004821901345,-0.7002801729640734,0.12090324933659573,-1.3130745623064721
2025-04-28 10:56:05.000,14.817576970880717,2.3903506748920096,5.2766974297980624,-3.5974740853759917,14.817576970880717,-0.8796697568421931,-0.27587113829768206,-1.7747768307508542,14.817576970880717,-16.193000540922334,37.61920977683621,24.619796567974728,14.817576970880717,-0.6195932985805654,9.470541673851628,1.7405080867059297,14.817576970880717,0.6300961711740971,0.6671805744753363,-0.26926355509429944,1.0966035033438615,-0.6766024987150308,0.13799698415464934,-1.3170186614608936
2025-04-28 10:56:05.050,14.868797680721011,0.7967086990966827,4.864603670971255,-2.3728811884523835,14.868797680721011,-1.2048325081133744,-1.097004059416179,-2.170226887271042,14.868797680721011,-12.503131096402,39.76050171752086,22.483944265844347,14.868797680721011,0.342371605482899,9.477731655843515,1.333841359766455,14.868797680721011,-0.08263074782608514,0.689466092299508,-0.2568083713570964,0.5293525845100603,-0.6422240200788684,0.17930041961116275,-1.3210791484772348
2025-04-28 10:56:05.100,14.919320383181308,-1.5884413785612916,3.637022547645672,-0.9159703779680539,14.919320383181308,-1.468700744455254,-1.5035960337850531,-2.2174601147563573,14.919320383181308,-9.016994833779524,42.350988022597626,18.93379950534496,14.919320383181308,1.3786846033884192,9.479890915356673,0.7379098079783383,14.919320383181308,-0.8308093163365712,0.7088652576932641,-0.2478528259945047,-0.25244418186725137,-0.6033593903304242,0.2387956683248662,-1.322608537092271
2025-04-28 10:56:05.150,14.968912507398237,-4.825388619419734,1.0799188906270973,0.892416486898792,14.968912507398237,-1.423084169233738,-0.8285003361637379,-1.4888618865085148,14.968912507398237,-6.113119442813061,44.848459011691546,14.999060798413861,14.968912507398237,2.2619833028149388,9.464619107176008,0.07816539818973475,14.968912507398237,-1.5254958772819232,0.7227388038878414,-0.236518335214374,-1.1216452531708108,-0.5720185723614074,0.2972047634200782,-1.3137079756171182
2025-04-28 10:56:05.200,15.018399872637165,-6.4496549225587625,-1.2915207301276026,3.1970552616483623,15.018399872637165,-0.8481196154373565,-0.8503414221576897,-0.6101242898722434,15.018399872637165,-4.353276762706705,46.4138931238847,12.271449873775342,15.018399872637165,2.7460228542995124,9.444935010713142,-0.3732068628252978,15.018399872637165,-2.0716031567404984,0.7278929940924475,-0.22702666889344916,-1.956730012217006,-0.5565020968621821,0.3329847642922223,-1.3057906295969164
2025-04-28 10:56:05.250,15.068306012119427,-5.06373502335658,-1.1658304390919756,2.3682016693769032,15.068306012119427,-0.6105511313881783,-1.499232918093536,0.17115320851765883,15.068306012119427,-4.546570251038036,47.08761255224279,10.05861331966376,15.068306012119427,2.8565239756440364,9.431963954947722,-0.6162641133247777,15.068306012119427,-2.353430736760222,0.7186269174437749,-0.23837468354192243,-2.7028519554624406,-0.5464638463503476,0.36603581043042693,-1.299413072606156
2025-04-28 10:56:05.300,15.118212172089015,-1.8928489675211329,-2.325607078441468,1.0766845328667158,15.118212172089015,-0.5092684331096043,-0.8918340816920197,0.5645353445839716,15.118212172089015,-5.955243126217871,46.978779356629815,7.98879033868965,15.118212172089015,2.695729335432117,9.416204792717009,-0.746113153047606,15.118212172089015,-2.2333320143428628,0.6960254359209319,-0.25679292288500083,-3.197930013170395,-0.5441157450835664,0.3926424658844606,-1.2903170595572115
2025-04-28 10:56:05.350,15.16811831362001,0.492591135092433,-1.7131044902339376,0.5404129263882119,15.16811831362001,-0.366598177037804,-0.605780586246012,0.41792404716834547,15.16811831362001,-7.077952700172566,46.77948702298689,6.6754560848494116,15.16811831362001,2.5103529546017587,9.425554207262337,-0.8682091335427832,15.16811831362001,-1.7886046289631654,0.6797892631102488,-0.2633736474578234,-3.205532327719699,-0.5489142694131056,0.404142421478854,-1.2955789336350403
2025-04-28 10:56:05.400,15.218024449460081,1.7207890512071407,0.09416003905759998,1.3811670100148639,15.218024449460081,-0.4152368767074123,-1.0543872735786575,0.3665978036256459,15.218024449460081,-8.292766935619738,46.727109952628865,5.262224779818177,15.218024449460081,2.340397483658938,9.459438670338116,-0.9804564880554145,15.218024449460081,-1.6937011005841602,0.6620271234605957,-0.27651247595021805,-2.950567249482298,-0.5501390854312969,0.42240212035361946,-1.3096943982595632
2025-04-28 10:56:05.450,15.267930623315523,1.8120011791254897,1.6835997758288928,2.6580101194455015,15.267930623315523,-0.0047031469504177845,-0.2751761471665969,0.07391976105387928,15.267930623315523,-9.166158993594319,46.73986198941044,4.198893037098004,15.267930623315523,2.246565907412099,9.48812397470776,-1.0406550519412934,15.267930623315523,-1.6238285753865156,0.6507493785680901,-0.28667820888754214,-3.181198189023478,-0.550397203412341,0.43558021381089673,-1.3202531005167526
2025-04-28 10:56:05.500,15.317836794325503,1.052560710303083,2.6262185207136075,3.070608835650965,15.317836794325503,0.3608815695769173,-0.5379815986592743,-0.3226399229913264,15.317836794325503,-9.112443915947356,46.759705884529,4.355115884278493,15.317836794325503,2.3173071509230554,9.493311656074525,-0.9369014815764366,15.317836794325503,-1.7099666019966553,0.6517142914802171,-0.29234581538482685,-2.838531836448356,-0.5459364780042496,0.43879905803783736,-1.3195149181224661
2025-04-28 10:56:05.550,15.367742934035403,-0.6659517435493318,2.774033048387707,2.7620661958468093,15.367742934035403,0.5836491168952086,-1.1032595084802141,-0.2989829686277126,15.367742934035403,-8.788003106106155,46.88501474518332,4.7707461128146065,15.367742934035403,2.4465249996043514,9.496304759952872,-0.6707482130843752,15.367742934035403,-2.084857646775635,0.6523923395521248,-0.30842114113931546,-2.0670877081211527,-0.5295534206714718,0.44602656950305664,-1.320380217456456
2025-04-28 10:56:05.600,15.41764904938815,-2.8600779208455354,1.8101985673010572,1.745797253788906,15.41764904938815,0.5840835039275941,-1.3127640410250472,0.18935972651887925,15.41764904938815,-9.298752072918965,46.73509460306957,5.0923690902603385,15.41764904938815,2.4092283958638214,9.509974500864383,-0.33782677632430286,15.41764904938815,-2.0064541247211727,0.6474848554755229,-0.33616842337893993,-1.1827226653576774,-0.5120968557908903,0.45258608282565166,-1.3294066804843794
2025-04-28 10:56:05.650,15.467555229275971,-5.314024431000595,-0.1935831865136153,1.0290496124696829,15.467555229275971,0.43592070422563073,-0.6062417455816482,0.9617913668111232,15.467555229275971,-11.27206610121652,46.09278378075387,5.520039670006114,15.467555229275971,2.0457212478213713,9.54745428805,-0.04824719571645358,15.467555229275971,-1.660102480621047,0.6369846548605467,-0.36656442880947177,-0.3400098533806396,-0.5082179295618571,0.45059330379647794,-1.3466639385866996
2025-04-28 10:56:05.700,15.517461339051613,-5.124870555504503,-0.6150758372338809,0.7392992808062534,15.517461339051613,0.48891095010377156,0.5923840913947658,1.8640192825581687,15.517461339051613,-14.506013527894668,44.738599301496144,7.221464527903755,15.517461339051613,1.289479819275517,9.60811617304994,0.3223167136491568,15.517461339051613,-1.1503639886472357,0.6242956472949482,-0.388875690836676,0.40090920456976736,-0.5264158579928595,0.42206666444804153,-1.373772747430764
2025-04-28 10:56:05.750,15.567367456794546,-1.4506444157137266,0.4088096219991772,-1.8930766521158169,15.567367456794546,0.21353190566450056,1.2675265383487704,2.02038839280189,15.567367456794546,-17.753347664501884,42.71195674442755,10.136182245285664,15.567367456794546,0.4194790178980606,9.631167619730498,0.8004044336211669,15.567367456794546,-0.5131743059587691,0.6114313164177844,-0.4012755807872054,0.9913784429148217,-0.5550640681913992,0.3742257946193226,-1.3845650283865205
2025-04-28 10:56:05.800,15.617273643966747,0.2073181316594324,-0.2136861083069389,-3.5633558724734087,15.617273643966747,0.04847475002348293,1.6140191716400378,1.9686389598326854,15.617273643966747,-20.563589605584898,40.41982527157098,13.09987635756987,15.617273643966747,-0.4252613892029579,9.599654368210565,1.2023903310023845,15.617273643966747,0.22321594272171433,0.5985263580293234,-0.4040333756262433,1.379059372166844,-0.5889098488474217,0.322655795131382,-1.3729162122978888
2025-04-28 10:56:05.850,15.667179766717696,1.6394501033059456,0.6993772047480129,-3.8753077152503876,15.667179766717696,0.28137751802289823,2.51273102444404,1.7766992773139993,15.667179766717696,-23.03311847251062,37.975619385903904,16.492250484297642,15.667179766717696,-1.2483357157081758,9.518887074269848,1.5724776237227784,15.667179766717696,0.8755178616804409,0.5924644795806894,-0.39443184116817165,1.3979704648946027,-0.6295336987492091,0.2609396801446903,-1.3399605629566012
2025-04-28 10:56:05.900,15.717085866704949,4.12834837344921,0.9641298976321845,-3.7377400244036316,15.717085866704949,0.15347798470676963,2.9730454625991745,1.355536872506284,15.717085866704949,-24.402741268131344,35.69695068928476,20.343522533781375,15.717085866704949,-1.8958039438047365,9.457581917888977,1.9564774104365812,15.717085866704949,1.6798264292001697,0.5926507906711609,-0.37577262259739086,0.9508032457794543,-0.6687777583825997,0.1948159236413485,-1.3125717849040066
2025-04-28 10:56:05.950,15.766992070949923,5.284882894181777,1.4551671898738798,-4.146648787276334,15.766992070949923,-0.08594885296503084,3.0744360379127986,0.16197605551956454,15.766992070949923,-23.908192731950727,34.40918752674743,24.00836659678218,15.766992070949923,-2.124721532253493,9.439010946489713,2.1695336594404604,15.766992070949923,2.1518209124003125,0.609379355932504,-0.33909038244310125,1.0121588748408914,-0.7013294647872157,0.13295331173350244,-1.3046919349838446
2025-04-28 10:56:06.000,15.816898289536024,4.722994443733119,3.4826388092645923,-4.588328320151385,15.816898289536024,-0.48526246674654205,1.2874542895313774,-1.1497137989093402,15.816898289536024,-21.275802583850123,34.65924877531331,26.2342636357377,15.816898289536024,-1.7408347280654968,9.431276623969023,2.18388817961671,15.816898289536024,1.8938977116578188,0.637264925152976,-0.3010409695625968,1.3012153216641316,-0.7084335871985415,0.10423739605849282,-1.298786979935642
2025-04-28 10:56:06.050,15.86680445257871,2.908537582315169,4.8858623845652405,-4.11779736178564,15.86680445257871,-0.7454253069583197,-0.20953104937132208,-1.8039565214674558,15.86680445257871,-17.498740513230302,36.230195585664426,26.188127175355636,15.86680445257871,-0.9369115652092002,9.443695578508056,2.035126197209691,15.86680445257871,1.0855023260585162,0.6635131796048885,-0.27840877890640253,1.2522759958910867,-0.6861438445262583,0.11643757784654948,-1.3037352090999184
2025-04-28 10:56:06.100,15.916710630190163,1.2510701746124344,4.892724266336151,-3.1009946533708024,15.916710630190163,-1.1866569637401287,-1.0773548985694699,-2.076758095901682,15.916710630190163,-13.792150921588211,38.4759243198209,24.10685838108024,15.916710630190163,0.00935367259228228,9.471306418555141,1.6470887908666962,15.916710630190163,0.4640417285074144,0.6853403429623482,-0.26660922581448776,0.7913290896647192,-0.6516636261068911,0.1565183951648301,-1.3169771219749253
2025-04-28 10:56:06.150,15.966616830110032,-1.0203578128456996,4.162980117989851,-1.597883082198201,15.966616830110032,-1.631942891436774,-1.1138875486342252,-2.0406061622715828,15.966616830110032,-10.364973346559065,41.12112223307302,20.55101004647213,15.966616830110032,0.9972052069709139,9.485000524355545,1.0128845043765784,15.966616830110032,-0.29434027939266355,0.7041427020142587,-0.25418751721598754,0.05334664322492474,-0.6161486276822703,0.2130228992319323,-1.3230957819064078
2025-04-28 10:56:06.200,16.01652302581862,-2.801990033305219,2.6522357112880055,0.24666443046791284,16.01652302581862,-1.7448679399222944,-0.5284003664702538,-1.6014415262340844,16.01652302581862,-7.0806612810610785,43.73749917481618,16.744946032970976,16.01652302581862,1.8903012927368141,9.47243945142604,0.2914481280598214,16.01652302581862,-1.0532913993807236,0.7198184891604477,-0.23278433212992042,-0.7832095941518805,-0.5887246417398154,0.266014655398831,-1.3166954212635418
2025-04-28 10:56:06.250,16.066429235982156,-6.42960106882335,-0.677025027190426,2.2338995224749376,16.066429235982156,-1.3951354363299333,-0.7474170141634149,-0.8438567670283639,16.066429235982156,-4.630242578466466,45.78454204283684,13.303727711497519,16.066429235982156,2.535753899229515,9.443939676211711,-0.3572478314392832,16.066429235982156,-1.6760945374033047,0.7278634334766858,-0.2133953240871373,-1.5897115263666963,-0.571234872079298,0.3098068308554251,-1.3035982077995345
2025-04-28 10:56:06.300,16.116335477673406,-5.421965382877431,-1.21798500284637,2.8143088332288975,16.116335477673406,-0.9821118655547281,-1.7719375196870433,-0.04350240354736656,16.116335477673406,-4.313703317353229,46.9654837797295,10.322326005700054,16.116335477673406,2.77568208406429,9.437344744089046,-0.7751981471560782,16.116335477673406,-2.0914377659506624,0.7209042931476177,-0.21803809030488022,-2.3397032111249234,-0.5590553967893639,0.351277067356865,-1.3017411411324353
2025-04-28 10:56:06.350,16.16624165004921,-3.1870799891605817,-2.236175731272484,2.1195798669520283,16.16624165004921,-0.707719378073491,-1.556183137142023,0.705165774213686,16.16624165004921,-6.026244640572658,47.21028209054954,7.284025015308603,16.16624165004921,2.6201333031069014,9.426594225396558,-1.047633670525497,16.16624165004921,-2.178519351562315,0.694869194745123,-0.2409646496573207,-2.9073735390306257,-0.5544548335350216,0.3912544674987604,-1.2967811800900753
2025-04-28 10:56:06.400,16.216147792832206,0.03852943678268152,-1.4182245336141674,1.3109577260674041,16.216147792832206,-0.3132815602567654,-0.828864464872369,0.8118715236949079,16.216147792832206,-8.122791921620067,46.882171687768725,5.3139278029506425,16.216147792832206,2.2917163436774395,9.45304118126215,-1.1680858025223981,16.216147792832206,-1.8100546770791186,0.6685556737952708,-0.25995686076438573,-3.0993793656149804,-0.5596604499226515,0.4108355543825699,-1.3060037430446332
2025-04-28 10:56:06.450,16.266053987630247,1.9424877677969914,-0.15721731329177302,1.0195454066156202,16.266053987630247,-0.3393679867162094,-0.8099444710378206,0.4446481498422889,16.266053987630247,-9.871415571732978,46.617151689862986,4.076709283148502,16.266053987630247,2.0210315189414936,9.497463812359246,-1.2404367783865418,16.266053987630247,-1.5304945157920102,0.6488710822159389,-0.2742335509096142,-2.679052440867449,-0.5648594879115418,0.4235105604475323,-1.3256445366956955
2025-04-28 10:56:06.500,16.315960171274078,2.208430405205659,1.0690720165667675,1.6367979836782522,16.315960171274078,-0.23222523762351768,-0.5468451835922824,0.07569004388434919,16.315960171274078,-10.753723279690714,46.655220896047425,2.8433525956871972,16.315960171274078,1.937846279352951,9.51533831788807,-1.3465031874255655,16.315960171274078,-1.438224826777904,0.6363185881112005,-0.2831730929527242,-2.9420514183402267,-0.5652236769842529,0.43883407412225994,-1.3320807417954228
2025-04-28 10:56:06.550,16.36586635992592,1.397627546396739,2.6402029703905594,2.8027659335204334,16.36586635992592,0.26775353659543605,-0.36876453445542745,-0.21395144194781426,16.36586635992592,-10.783003103260699,46.71648206733057,2.560803037701237,16.36586635992592,1.9852938818078072,9.52057160694997,-1.3269349872852056,16.36586635992592,-1.4184836097837104,0.6341412556802295,-0.28846435362630823,-2.9405799010316613,-0.5625777136275456,0.4454904415282736,-1.3331602056022958
2025-04-28 10:56:06.600,16.415772600023715,0.013226344712910804,3.0379048567014584,3.245461685095911,16.415772600023715,0.6059324009200716,-0.8686171293723264,-0.6137253550104901,16.415772600023715,-10.107916295333922,46.85200543881586,3.111223888619526,16.415772600023715,2.1812566711045642,9.506626755429117,-1.0803910935955536,16.415772600023715,-1.756749118667701,0.6380785210730457,-0.3000083547680934,-2.4505304540288653,-0.5470274873763499,0.451384251564703,-1.3246386184404746
2025-04-28 10:56:06.650,16.465678892591825,-2.3857013250287946,2.3944140920337347,2.8681652818820798,16.465678892591825,0.7421257982712197,-0.8965223605729364,-0.4080484929166762,16.465678892591825,-9.320839365712434,47.04883575083782,3.9899236078862637,16.465678892591825,2.3992700956341886,9.497380742124815,-0.7075740648794553,16.465678892591825,-1.9740898479763513,0.6442810685023725,-0.317644258544043,-1.6378252957625283,-0.5248176629549307,0.45622652444232475,-1.3223297219142958
2025-04-28 10:56:06.700,16.515585167176614,-4.949305584097306,0.8748296414190287,2.264136203564766,16.515585167176614,0.6771069151720609,-0.7350332481560853,0.34352678519028973,16.515585167176614,-9.628295329345157,46.89129241729961,4.980238388523923,16.515585167176614,2.3590925754201812,9.514521705655111,-0.3436077201331148,16.515585167176614,-1.8202259756178665,0.6455783963242362,-0.34008700910811346,-0.7720106002999063,-0.5110293849888369,0.4548900331716563,-1.3309715182673467
2025-04-28 10:56:06.750,16.56549142650973,-7.418779385701694,-0.9980061806715613,2.0505935305597665,16.56549142650973,0.7029447171819743,-0.0045361932809955385,1.4615993473392304,16.56549142650973,-11.84275485663428,45.95560675489886,6.401791943814664,16.56549142650973,1.876292267869972,9.547942510707747,0.028836694263838027,16.56549142650973,-1.4271092445776394,0.6386854165387064,-0.36495173635619876,0.03319715127687635,-0.5158455350505535,0.43876686204158705,-1.3449471371342234
2025-04-28 10:56:06.800,16.615397701549792,-3.281480456241637,-0.1612916671241833,0.39415523747797554,16.615397701549792,0.6416870612720594,0.6122287449811215,2.125182487991034,16.615397701549792,-15.1987657097948,44.024690911708845,9.163021509130541,16.615397701549792,1.0432878403979844,9.57353369791388,0.5788753740243984,16.615397701549792,-0.8788921855234468,0.6260302404890103,-0.38835363205253987,0.7107347266720998,-0.5367340027077535,0.39875329706334717,-1.3587911775447676
2025-04-28 10:56:06.850,16.665303962590183,-0.6400664341168152,-0.5074756051421997,-1.96511747174929,16.665303962590183,0.36125405328674004,1.2123860488595832,2.3088415194606786,16.665303962590183,-18.731993519176182,41.5303589578554,12.239460018131313,16.665303962590183,0.09249423953762335,9.557519244044695,1.0969521818296528,16.665303962590183,-0.18288485317154068,0.6093478976417552,-0.40346328774759765,1.2420005117614497,-0.5680674984163644,0.3482747000544282,-1.354641302890908
2025-04-28 10:56:06.900,16.71521017400572,0.7912282109020348,1.0679251707214796,-3.268109472813393,16.71521017400572,0.4473145367113107,1.9019503700327711,2.2652771540750356,16.71521017400572,-22.30744167941439,38.8431660970053,15.477167729731244,16.71521017400572,-0.9019432990858434,9.517347161025373,1.54821893095081,16.71521017400572,0.5216969387079259,0.5953714638174193,-0.40956408671541994,1.4870088644171684,-0.6074109091972428,0.290728851224482,-1.3390021739031281
2025-04-28 10:56:06.950,16.765116334430584,3.7726052837786295,0.9610183813366754,-4.425747684644265,16.765116334430584,0.19673104320928542,2.7697287834312463,1.7004804431905878,16.765116334430584,-24.689094120194643,36.28944653775595,19.266794299857093,16.765116334430584,-1.7075901950965446,9.451072055637864,1.961982162945429,16.765116334430584,1.2840870530350734,0.5911622994561114,-0.39804062946257884,1.2985896157822523,-0.6488165487047655,0.22392301672255024,-1.3102322926939545
2025-04-28 10:56:07.000,16.815022507034023,5.586034170282615,1.0391701150413586,-4.98303045031778,16.815022507034023,-0.21472050947308724,2.706935598366056,0.804845182054042,16.815022507034023,-25.260031149270713,34.664369553786145,22.592892256872414,16.815022507034023,-2.1546765188717427,9.423949878343098,2.1483755433831457,16.815022507034023,2.005818131750319,0.5993066315352166,-0.3679130370945597,0.8215751246736639,-0.6866204941459553,0.16296830304529802,-1.30034002192349
2025-04-28 10:56:07.050,16.864928682482923,5.750084793576404,3.350101592860812,-5.188446606285519,16.864928682482923,-0.5939611306487833,1.409791803128135,-0.6474406883849981,16.864928682482923,-23.940801881021056,34.5133181271854,24.46510563207957,16.864928682482923,-2.048788538013615,9.429203813426653,2.1306833980220716,16.864928682482923,2.042210717756855,0.6171207180832083,-0.33600716493315547,1.249224957937131,-0.7031354183740162,0.1327578027511502,-1.3014977565698236
2025-04-28 10:56:07.100,16.914834863622747,4.017696945779442,5.231994622780257,-4.542116826957686,16.914834863622747,-0.6827103441411815,0.16354991746567088,-1.8513963647516782,16.914834863622747,-20.53525608302835,35.81733586237989,24.653366231140343,16.914834863622747,-1.326106163528604,9.427575198372285,2.006513469236802,16.914834863622747,1.3568893926825498,0.6426101902172947,-0.3105512185953491,1.4140663568091687,-0.6868856164031502,0.13903520313192805,-1.2986266669569018
2025-04-28 10:56:07.150,16.96474107981866,2.2634812273033096,5.453465313497754,-3.1937443456395647,16.96474107981866,-0.9971470766377364,-0.6415187922660236,-2.2576714969876264,16.96474107981866,-16.268009326285735,38.13395041441315,23.17772918914587,16.96474107981866,-0.30932191656575897,9.45881252585731,1.69418489566111,16.96474107981866,0.5990028626701552,0.6696732111165217,-0.29114005492702877,1.2271107998272495,-0.6540672811249123,0.17160902223652855,-1.312261174200617
2025-04-28 10:56:07.200,17.014647235463148,0.13232351417902014,4.974039805021302,-1.4186769905833165,17.014647235463148,-1.2961165173348324,-1.2368886391582359,-2.316340626614708,17.014647235463148,-12.192865594895045,40.88079354524067,20.154027110991272,17.014647235463148,0.7757780699042285,9.484519053266254,1.165062958594203,17.014647235463148,-0.12489188984190232,0.6925871103621346,-0.2767669075883699,0.6500016963013433,-0.6156051731415215,0.223597752102224,-1.3236395618712415
2025-04-28 10:56:07.250,17.064553402830935,-2.3619537285232624,3.643709503406594,0.3630734759124113,17.064553402830935,-1.4739894075167244,-0.6896337963510453,-1.8948893980963293,17.064553402830935,-8.651852132446026,43.51819002733931,16.39658643460222,17.064553402830935,1.7523413508032826,9.472680100859302,0.5084750322498569,17.064553402830935,-0.8922826178995786,0.7095581913080228,-0.2609762656443819,-0.1509770688059687,-0.5819384013165737,0.2799506922257098,-1.3185491437461345
2025-04-28 10:56:07.300,17.114459608214094,-5.302093369457139,0.1305722293034732,2.4891469152977814,17.114459608214094,-1.2731519461424927,-0.20568920080929975,-1.1253615369972536,17.114459608214094,-5.775690202335113,45.598667968181026,13.160095478049001,17.114459608214094,2.470200726668653,9.436836719083196,-0.12231008077791336,17.114459608214094,-1.5627979058172368,0.7212625898881766,-0.23823199626878638,-0.9958600839538757,-0.5624671027457315,0.32068754008055667,-1.304123853771456
2025-04-28 10:56:07.350,17.16436579959758,-4.554907338558492,-0.5845706649726061,2.7776353310841704,17.16436579959758,-0.9217495496456463,-0.858500333799872,-0.5805846606344345,17.16436579959758,-4.333750613197034,46.91477399350336,10.520001071316406,17.16436579959758,2.8643313062261124,9.406046084588791,-0.6004696129002685,17.16436579959758,-2.0469626711636306,0.7235581759987222,-0.22689373714256522,-1.8344054872547764,-0.55150220499839,0.3531231504042981,-1.290418168798173
2025-04-28 10:56:07.400,17.214271977209034,-3.863675688872157,-1.1106157378349149,2.1226165621974955,17.214271977209034,-0.7962108775712831,-1.40185412695254,0.15345928671320472,17.214271977209034,-4.404220517031807,47.53123121995204,7.863868596003625,17.214271977209034,2.977088165549811,9.363509677289262,-0.9193437690379053,17.214271977209034,-2.246524445318651,0.7104393916341397,-0.23431000196526522,-2.600726579323523,-0.5423897465095382,0.38839489567765145,-1.2710498958937468
2025-04-28 10:56:07.450,17.26417816688524,-0.8271244299484737,-3.2242653187776322,1.1896432037164686,17.26417816688524,-0.5448278200584705,-0.5881651516448033,0.3866033665818501,17.26417816688524,-5.182959432535251,47.503052341132296,5.693537536478835,17.26417816688524,2.88485118176854,9.325047856813384,-1.1143319571612393,17.26417816688524,-2.0302209430891267,0.6898015249907637,-0.24368391517693777,-3.115372033812354,-0.5409705823463905,0.41259681249705416,-1.2536923827511648
2025-04-28 10:56:07.500,17.31408439309718,1.2618193915515121,-2.141958906935192,1.8576545752556253,17.31408439309718,-0.4210939941341654,-1.108528927665007,0.43789132113518664,17.31408439309718,-6.086119645125398,47.422815040997534,4.248680239235059,17.31408439309718,2.74632287375055,9.334542645086476,-1.220740964817843,17.31408439309718,-1.6715666951254209,0.6722259761687086,-0.25429547592597296,-3.1198181904182145,-0.5416417112301485,0.4297890906162213,-1.2592359427529314
2025-04-28 10:56:07.550,17.363990527571428,1.7689508056796708,-0.10424783773173643,2.7261695283092586,17.363990527571428,-0.20299283595351958,-0.8540008586742406,0.2366326296319952,17.363990527571428,-7.181132745631665,47.45215269146556,3.009434050446631,17.363990527571428,2.6316354938036866,9.365231491838275,-1.2508698008982453,17.363990527571428,-1.597664022889724,0.6563679674050168,-0.2711572189154604,-3.2097455249218303,-0.5387797180166181,0.4490929498537733,-1.2708658813268399
